frameId	modelId	qs	qx	qy	qz	gx	gy	gz	ax	ay	az	modelId	qs	qx	qy	qz	gx	gy	gz	ax	ay	az
18	147	0.9338	-0.0326	0.3560	-0.0154	0.5	1.7	0.4	-1036	-171	1736	
19	147	0.9337	-0.0325	0.3561	-0.0153	0.4	1.5	0.6	-1044	-170	1737	
20	147	0.9337	-0.0325	0.3562	-0.0153	0.5	1.4	0.4	-1046	-168	1726	
21	147	0.9337	-0.0324	0.3563	-0.0153	0.3	1.2	0.7	-1046	-173	1734	
22	147	0.9336	-0.0323	0.3564	-0.0152	0.5	1.2	0.9	-1053	-173	1730	
23	147	0.9336	-0.0323	0.3565	-0.0152	0.4	1.0	0.7	-1042	-170	1730	
24	147	0.9338	-0.0319	0.3558	-0.0165	0.4	1.4	0.7	-1047	-170	1742	
25	147	0.9338	-0.0318	0.3559	-0.0165	0.3	1.2	0.6	-1043	-175	1741	
26	147	0.9338	-0.0317	0.3560	-0.0165	0.3	1.2	0.6	-1045	-172	1725	
27	147	0.9337	-0.0317	0.3561	-0.0164	0.3	1.3	0.6	-1043	-175	1731	
28	147	0.9337	-0.0317	0.3562	-0.0164	0.2	1.2	0.3	-1047	-166	1741	
29	147	0.9337	-0.0316	0.3563	-0.0164	0.4	1.7	0.5	-1042	-168	1732	
30	147	0.9339	-0.0314	0.3557	-0.0170	0.5	2.0	0.8	-1045	-177	1749	
31	147	0.9338	-0.0314	0.3559	-0.0170	0.6	2.5	0.7	-1041	-179	1729	
32	147	0.9338	-0.0313	0.3560	-0.0169	0.6	2.2	0.7	-1046	-177	1740	
33	147	0.9337	-0.0313	0.3562	-0.0169	0.7	2.0	0.7	-1040	-175	1746	
34	147	0.9337	-0.0312	0.3563	-0.0169	0.8	2.1	0.4	-1045	-171	1737	
35	147	0.9336	-0.0311	0.3565	-0.0168	0.6	1.9	0.9	-1047	-175	1728	
36	147	0.9338	-0.0303	0.3559	-0.0191	0.7	1.5	1.0	-1042	-176	1739	
37	147	0.9338	-0.0302	0.3560	-0.0191	0.8	1.9	0.7	-1042	-173	1731	
38	147	0.9337	-0.0302	0.3562	-0.0190	0.4	1.8	0.7	-1039	-167	1726	
39	147	0.9337	-0.0301	0.3563	-0.0190	0.5	1.8	0.7	-1049	-169	1733	
40	147	0.9336	-0.0300	0.3564	-0.0190	0.7	1.8	0.6	-1040	-173	1733	
41	147	0.9336	-0.0299	0.3565	-0.0190	0.6	1.9	0.6	-1046	-179	1738	
42	147	0.9338	-0.0296	0.3560	-0.0201	0.6	1.8	0.6	-1043	-165	1738	
43	147	0.9337	-0.0295	0.3561	-0.0201	0.2	2.1	0.4	-1052	-175	1733	
44	147	0.9337	-0.0295	0.3563	-0.0201	0.4	2.0	0.3	-1040	-177	1724	
45	147	0.9336	-0.0294	0.3564	-0.0201	0.7	1.9	0.6	-1047	-172	1729	
46	147	0.9336	-0.0293	0.3565	-0.0200	0.4	2.0	0.6	-1044	-181	1732	
47	147	0.9335	-0.0293	0.3567	-0.0200	0.4	1.6	0.6	-1051	-175	1738	
48	147	0.9337	-0.0287	0.3561	-0.0216	0.5	1.9	0.6	-1039	-176	1740	
49	147	0.9337	-0.0287	0.3562	-0.0216	0.7	2.3	0.9	-1042	-173	1749	
50	147	0.9336	-0.0286	0.3564	-0.0215	0.7	2.3	1.2	-1049	-177	1738	
51	147	0.9336	-0.0285	0.3565	-0.0215	0.7	2.4	0.8	-1040	-180	1733	
52	147	0.9335	-0.0284	0.3567	-0.0215	1.0	2.6	1.0	-1046	-174	1722	
53	147	0.9335	-0.0283	0.3569	-0.0214	0.8	2.0	1.1	-1044	-172	1727	
54	147	0.9337	-0.0276	0.3563	-0.0234	0.9	2.1	1.0	-1047	-168	1730	
55	147	0.9336	-0.0275	0.3565	-0.0234	0.6	2.2	0.7	-1043	-167	1729	
56	147	0.9335	-0.0275	0.3566	-0.0233	0.7	2.0	0.7	-1043	-169	1725	
57	147	0.9335	-0.0274	0.3568	-0.0233	0.6	2.3	0.7	-1046	-168	1733	
58	147	0.9334	-0.0273	0.3569	-0.0233	0.7	2.6	1.0	-1038	-180	1735	
59	147	0.9333	-0.0272	0.3571	-0.0233	0.8	2.6	1.0	-1046	-173	1747	
60	147	0.9336	-0.0268	0.3565	-0.0244	1.0	2.9	0.9	-1047	-177	1746	
61	147	0.9335	-0.0266	0.3567	-0.0244	1.0	2.6	1.2	-1050	-179	1744	
62	147	0.9334	-0.0266	0.3569	-0.0244	1.1	2.5	1.0	-1040	-177	1737	
63	147	0.9333	-0.0264	0.3571	-0.0244	1.2	2.7	1.0	-1047	-176	1734	
64	147	0.9333	-0.0263	0.3573	-0.0243	1.1	2.5	1.0	-1049	-175	1721	
65	147	0.9332	-0.0262	0.3575	-0.0243	1.1	2.5	0.9	-1046	-170	1746	
66	147	0.9335	-0.0261	0.3568	-0.0245	1.2	2.4	0.9	-1043	-174	1737	
67	147	0.9334	-0.0260	0.3570	-0.0245	1.0	2.5	1.3	-1051	-177	1741	
68	147	0.9333	-0.0259	0.3572	-0.0244	1.2	2.5	1.3	-1043	-173	1734	
69	147	0.9333	-0.0258	0.3573	-0.0244	0.9	2.3	1.0	-1042	-173	1739	
70	147	0.9332	-0.0257	0.3575	-0.0244	0.9	2.5	0.7	-1048	-173	1738	
71	147	0.9332	-0.0256	0.3577	-0.0244	0.8	2.0	0.7	-1052	-166	1731	
72	147	0.9333	-0.0250	0.3571	-0.0260	0.6	1.7	0.5	-1046	-177	1737	
73	147	0.9333	-0.0250	0.3572	-0.0260	0.3	1.7	0.4	-1051	-171	1736	
74	147	0.9333	-0.0249	0.3573	-0.0260	0.7	1.5	0.8	-1052	-174	1736	
75	147	0.9332	-0.0248	0.3574	-0.0259	0.5	1.0	0.6	-1057	-178	1751	
76	147	0.9332	-0.0248	0.3575	-0.0259	0.7	1.5	0.9	-1043	-166	1736	
77	147	0.9332	-0.0247	0.3576	-0.0258	0.4	1.6	0.7	-1048	-171	1721	
78	147	0.9334	-0.0245	0.3570	-0.0266	0.7	1.5	0.7	-1042	-176	1736	
79	147	0.9333	-0.0244	0.3571	-0.0266	0.7	1.6	0.7	-1049	-177	1734	
80	147	0.9333	-0.0244	0.3572	-0.0265	0.5	1.5	0.6	-1056	-182	1730	
81	147	0.9333	-0.0243	0.3573	-0.0265	0.5	1.2	0.4	-1053	-175	1724	
82	147	0.9332	-0.0242	0.3574	-0.0265	0.6	1.2	0.4	-1046	-173	1737	
83	147	0.9332	-0.0242	0.3575	-0.0264	0.3	1.5	0.7	-1048	-174	1743	
84	147	0.9334	-0.0238	0.3569	-0.0277	0.2	1.8	0.7	-1052	-175	1726	
85	147	0.9333	-0.0237	0.3570	-0.0277	0.4	1.9	0.7	-1054	-170	1724	
86	147	0.9333	-0.0237	0.3572	-0.0276	0.6	2.0	0.8	-1050	-165	1724	
87	147	0.9333	-0.0236	0.3573	-0.0276	0.6	2.1	0.9	-1054	-175	1724	
88	147	0.9332	-0.0235	0.3575	-0.0276	0.6	2.2	1.1	-1048	-174	1731	
89	147	0.9331	-0.0234	0.3576	-0.0275	0.6	2.0	0.8	-1049	-175	1723	
90	147	0.9334	-0.0233	0.3570	-0.0279	0.7	1.9	0.7	-1056	-171	1731	
91	147	0.9333	-0.0233	0.3571	-0.0279	0.6	1.9	0.9	-1054	-175	1734	
92	147	0.9333	-0.0232	0.3573	-0.0278	0.6	2.0	0.9	-1047	-169	1734	
93	147	0.9332	-0.0231	0.3574	-0.0278	0.6	1.7	0.9	-1046	-170	1727	
94	147	0.9332	-0.0230	0.3575	-0.0277	0.4	2.1	0.9	-1048	-167	1735	
95	147	0.9331	-0.0230	0.3577	-0.0277	0.6	2.1	0.8	-1049	-167	1742	
96	147	0.9333	-0.0227	0.3570	-0.0287	0.3	1.9	0.4	-1051	-164	1743	
97	147	0.9333	-0.0226	0.3572	-0.0287	0.4	1.7	0.7	-1043	-178	1733	
98	147	0.9333	-0.0226	0.3573	-0.0287	0.4	2.0	0.7	-1051	-173	1756	
99	147	0.9332	-0.0225	0.3574	-0.0287	0.3	1.9	0.7	-1051	-165	1745	
100	147	0.9332	-0.0225	0.3576	-0.0286	0.3	2.0	1.0	-1051	-174	1735	
101	147	0.9331	-0.0225	0.3577	-0.0286	0.1	1.8	0.6	-1048	-168	1733	
102	147	0.9333	-0.0219	0.3571	-0.0303	0.1	2.1	0.7	-1048	-179	1740	
103	147	0.9333	-0.0219	0.3572	-0.0302	0.3	2.0	0.8	-1049	-169	1738	
104	147	0.9332	-0.0218	0.3573	-0.0302	0.4	1.7	0.7	-1056	-175	1733	
105	147	0.9332	-0.0217	0.3575	-0.0302	0.8	2.1	0.8	-1053	-173	1744	
106	147	0.9331	-0.0217	0.3576	-0.0302	0.8	1.8	0.8	-1052	-177	1735	
107	147	0.9331	-0.0216	0.3577	-0.0301	0.7	2.0	0.8	-1045	-171	1743	
108	147	0.9333	-0.0215	0.3571	-0.0302	0.9	1.7	0.9	-1052	-164	1748	
109	147	0.9333	-0.0215	0.3572	-0.0302	0.4	1.8	0.9	-1045	-175	1740	
110	147	0.9332	-0.0214	0.3573	-0.0302	0.6	1.8	0.7	-1058	-171	1734	
111	147	0.9332	-0.0214	0.3575	-0.0302	0.4	1.6	1.0	-1046	-169	1742	
112	147	0.9331	-0.0213	0.3576	-0.0301	0.5	1.8	0.9	-1054	-170	1727	
113	147	0.9331	-0.0213	0.3577	-0.0301	0.7	1.7	0.7	-1046	-170	1743	
114	147	0.9333	-0.0213	0.3570	-0.0301	0.4	1.7	0.5	-1053	-169	1743	
115	147	0.9333	-0.0212	0.3571	-0.0301	0.5	1.5	0.6	-1050	-169	1743	
116	147	0.9333	-0.0212	0.3572	-0.0300	0.5	1.4	0.7	-1045	-171	1730	
117	147	0.9333	-0.0211	0.3573	-0.0300	0.4	1.2	0.7	-1052	-172	1737	
118	147	0.9332	-0.0211	0.3573	-0.0300	0.4	0.7	0.7	-1057	-173	1743	
119	147	0.9332	-0.0211	0.3574	-0.0299	0.4	0.9	0.7	-1046	-170	1745	
120	147	0.9334	-0.0207	0.3567	-0.0311	0.7	0.7	0.9	-1049	-175	1739	
121	147	0.9334	-0.0206	0.3568	-0.0311	0.9	1.6	0.9	-1045	-171	1737	
122	147	0.9334	-0.0205	0.3569	-0.0310	0.8	1.5	0.9	-1053	-175	1736	
123	147	0.9333	-0.0204	0.3570	-0.0310	0.4	1.1	0.9	-1050	-171	1738	
124	147	0.9333	-0.0204	0.3571	-0.0309	0.3	1.5	1.0	-1055	-168	1749	
125	147	0.9333	-0.0204	0.3572	-0.0309	0.3	1.2	1.0	-1059	-158	1747	
126	147	0.9336	-0.0207	0.3565	-0.0300	0.1	1.2	0.7	-1055	-163	1743	
127	147	0.9336	-0.0207	0.3565	-0.0299	0.2	1.3	0.9	-1050	-164	1742	
128	147	0.9335	-0.0207	0.3566	-0.0299	0.3	0.9	0.4	-1055	-167	1742	
129	147	0.9335	-0.0206	0.3567	-0.0299	0.3	0.6	0.7	-1047	-163	1748	
130	147	0.9335	-0.0206	0.3567	-0.0298	0.1	0.6	0.6	-1055	-172	1733	
131	147	0.9335	-0.0206	0.3567	-0.0298	-0.1	0.2	0.7	-1046	-169	1719	
132	147	0.9337	-0.0203	0.3560	-0.0310	0.4	-0.3	0.8	-1038	-194	1805	
133	147	0.9337	-0.0203	0.3560	-0.0310	-0.3	0.3	0.3	-1040	-175	1750	
134	147	0.9337	-0.0204	0.3559	-0.0310	-0.9	-0.6	0.2	-1048	-170	1741	
135	147	0.9338	-0.0204	0.3558	-0.0309	-1.1	-1.1	0.3	-1046	-170	1732	
136	147	0.9338	-0.0205	0.3558	-0.0309	-1.0	-0.7	0.0	-1048	-167	1749	
137	147	0.9338	-0.0206	0.3558	-0.0309	-1.2	-1.0	0.2	-1035	-166	1749	
138	147	0.9342	-0.0208	0.3549	-0.0308	-1.0	-0.9	0.1	-1034	-177	1731	
139	147	0.9342	-0.0209	0.3548	-0.0308	-0.8	-0.7	0.3	-1043	-177	1737	
140	147	0.9342	-0.0210	0.3547	-0.0307	-1.0	-0.4	0.5	-1037	-174	1738	
141	147	0.9342	-0.0211	0.3547	-0.0307	-0.7	-0.4	0.0	-1041	-181	1750	
142	147	0.9342	-0.0211	0.3547	-0.0306	-0.5	-0.3	0.0	-1041	-170	1738	
143	147	0.9342	-0.0211	0.3547	-0.0306	-1.0	-0.3	0.0	-1043	-179	1753	
144	147	0.9345	-0.0212	0.3539	-0.0309	-0.7	0.0	0.0	-1036	-177	1746	
145	147	0.9345	-0.0213	0.3539	-0.0309	-1.1	-0.6	-0.4	-1040	-178	1747	
146	147	0.9345	-0.0214	0.3538	-0.0309	-1.4	-0.7	-0.2	-1040	-181	1742	
147	147	0.9345	-0.0215	0.3538	-0.0309	-1.8	-0.7	-0.7	-1036	-172	1749	
148	147	0.9346	-0.0217	0.3537	-0.0309	-2.5	-1.4	-0.8	-1045	-179	1767	
149	147	0.9346	-0.0219	0.3536	-0.0309	-2.8	-2.0	-0.7	-1038	-179	1749	
150	147	0.9350	-0.0222	0.3526	-0.0310	-2.8	-2.0	-0.6	-1036	-188	1738	
151	147	0.9350	-0.0224	0.3525	-0.0309	-2.0	-2.7	-0.5	-1035	-185	1750	
152	147	0.9351	-0.0226	0.3523	-0.0309	-1.4	-2.5	-0.3	-1023	-189	1732	
153	147	0.9351	-0.0227	0.3522	-0.0309	-1.7	-1.7	-0.3	-1019	-187	1755	
154	147	0.9351	-0.0228	0.3521	-0.0309	-0.7	-1.0	0.0	-1034	-179	1772	
155	147	0.9352	-0.0230	0.3520	-0.0309	-4.0	-2.3	-1.7	-1037	-151	1751	
156	147	0.9355	-0.0232	0.3511	-0.0316	-4.2	-1.7	-1.6	-1011	-195	1742	
157	147	0.9355	-0.0234	0.3510	-0.0317	-2.8	-0.9	-1.2	-1022	-190	1760	
158	147	0.9355	-0.0236	0.3509	-0.0317	-1.5	-0.6	-0.5	-1023	-202	1740	
159	147	0.9356	-0.0237	0.3509	-0.0317	-0.6	-0.5	0.0	-1032	-188	1739	
160	147	0.9356	-0.0237	0.3509	-0.0316	-0.1	-0.1	0.3	-1028	-194	1749	
161	147	0.9356	-0.0237	0.3508	-0.0316	-0.3	-0.4	0.0	-1025	-182	1751	
162	147	0.9358	-0.0234	0.3500	-0.0332	-1.0	-0.7	-0.7	-1034	-193	1758	
163	147	0.9358	-0.0236	0.3500	-0.0332	-2.1	-0.8	-1.0	-1032	-179	1742	
164	147	0.9358	-0.0238	0.3500	-0.0332	-3.5	-0.4	-1.9	-1029	-176	1765	
165	147	0.9358	-0.0242	0.3499	-0.0333	-5.0	-1.2	-3.3	-1001	-176	1734	
166	147	0.9358	-0.0246	0.3499	-0.0334	-4.9	3.8	-9.8	-935	-76	1865	
167	147	0.9354	-0.0219	0.3512	-0.0349	12.4	5.3	1.7	-925	-496	1693	
168	147	0.9355	-0.0223	0.3505	-0.0366	3.2	0.9	-0.1	-1071	-236	1793	
169	147	0.9354	-0.0228	0.3510	-0.0363	-16.6	24.7	14.6	-1903	642	1812	
170	147	0.9351	-0.0225	0.3516	-0.0357	-3.7	0.6	10.5	-1042	-264	1755	
171	147	0.9350	-0.0225	0.3521	-0.0350	4.3	13.8	6.4	-1069	72	1745	
172	147	0.9348	-0.0222	0.3527	-0.0345	-4.6	3.7	14.1	-1050	-207	1782	
173	147	0.9347	-0.0222	0.3531	-0.0338	-2.3	5.8	7.3	-1075	-42	1720	
174	147	0.9349	-0.0225	0.3527	-0.0320	-5.0	3.4	5.9	-1007	-224	1769	
175	147	0.9348	-0.0224	0.3531	-0.0315	2.0	6.0	6.7	-1017	-106	1723	
176	147	0.9347	-0.0220	0.3535	-0.0310	2.9	5.2	11.4	-1065	-155	1724	
177	147	0.9346	-0.0217	0.3537	-0.0302	-1.4	3.5	10.5	-1034	-185	1757	
178	147	0.9345	-0.0215	0.3541	-0.0294	0.1	6.2	11.1	-1039	-31	1752	
179	147	0.9344	-0.0212	0.3544	-0.0286	-1.3	3.5	9.2	-1025	-150	1728	
180	147	0.9347	-0.0217	0.3538	-0.0267	0.7	6.0	8.6	-1025	-251	1820	
181	147	0.9346	-0.0217	0.3541	-0.0259	-4.6	4.5	10.3	-1031	-96	1773	
182	147	0.9344	-0.0215	0.3545	-0.0251	2.2	6.9	11.5	-1045	-147	1751	
183	147	0.9344	-0.0213	0.3547	-0.0242	-5.0	1.7	12.8	-1037	-186	1741	
184	147	0.9344	-0.0213	0.3549	-0.0233	-3.1	1.1	12.6	-1039	-243	1752	
185	147	0.9343	-0.0215	0.3551	-0.0224	-7.1	2.3	9.5	-1024	-182	1761	
186	147	0.9346	-0.0225	0.3544	-0.0197	-5.2	3.4	9.5	-1074	-77	1734	
187	147	0.9345	-0.0224	0.3546	-0.0190	-4.4	4.0	13.4	-1078	-204	1788	
188	147	0.9344	-0.0225	0.3549	-0.0181	-5.2	5.0	11.4	-1023	-170	1779	
189	147	0.9343	-0.0226	0.3552	-0.0173	-7.9	3.0	10.6	-1045	-149	1723	
190	147	0.9342	-0.0226	0.3555	-0.0164	-4.6	1.9	13.7	-1041	-233	1759	
191	147	0.9341	-0.0226	0.3559	-0.0154	-1.5	5.1	12.9	-1059	-167	1758	
192	147	0.9343	-0.0228	0.3553	-0.0141	-7.0	2.9	13.5	-1065	-97	1718	
193	147	0.9343	-0.0227	0.3556	-0.0132	-0.2	4.6	13.0	-1077	-87	1743	
194	147	0.9342	-0.0226	0.3558	-0.0121	-5.9	3.7	15.0	-1023	-207	1760	
195	147	0.9342	-0.0228	0.3559	-0.0110	-7.8	0.3	12.6	-1078	-103	1758	
196	147	0.9341	-0.0230	0.3561	-0.0100	-7.1	2.5	9.2	-1028	0	1716	
197	147	0.9340	-0.0230	0.3564	-0.0088	-3.7	3.2	16.7	-1033	-157	1795	
198	147	0.9343	-0.0236	0.3557	-0.0055	-1.5	2.9	19.4	-1052	-53	1707	
199	147	0.9341	-0.0232	0.3561	-0.0042	-2.6	5.9	18.4	-1076	-200	1886	
200	147	0.9340	-0.0233	0.3563	-0.0026	-7.6	2.9	17.6	-1070	-105	1741	
201	147	0.9340	-0.0233	0.3565	-0.0012	-9.2	3.2	15.6	-1053	-1	1765	
202	147	0.9339	-0.0234	0.3567	0.0005	-4.9	0.1	21.0	-1067	157	1689	
203	147	0.9337	-0.0228	0.3572	0.0020	0.3	9.6	28.5	-1100	-29	1727	
204	147	0.9337	-0.0240	0.3572	0.0068	-13.4	9.9	25.2	-1048	-52	1774	
205	147	0.9336	-0.0237	0.3574	0.0084	-4.0	-0.2	20.4	-1052	-17	1767	
206	147	0.9336	-0.0237	0.3575	0.0100	-11.4	-0.3	21.4	-1064	-36	1696	
207	147	0.9335	-0.0236	0.3576	0.0119	-5.7	-2.3	19.0	-1037	45	1592	
208	147	0.9333	-0.0234	0.3580	0.0137	-6.1	6.0	26.8	-994	-162	1716	
209	147	0.9331	-0.0237	0.3583	0.0159	-19.5	5.4	24.6	-1155	-7	1595	
210	147	0.9331	-0.0253	0.3581	0.0221	-10.8	3.7	24.7	-1082	-133	1717	
211	147	0.9330	-0.0251	0.3583	0.0240	-6.4	4.4	25.1	-1128	-90	1652	
212	147	0.9328	-0.0256	0.3585	0.0262	-11.2	-1.4	24.6	-1092	-134	1709	
213	147	0.9327	-0.0258	0.3586	0.0280	-13.7	1.8	21.0	-1124	-94	1791	
214	147	0.9326	-0.0263	0.3587	0.0300	-12.7	2.5	22.1	-1083	-37	1598	
215	147	0.9324	-0.0266	0.3589	0.0321	-11.6	0.0	23.7	-1105	-195	1807	
216	147	0.9324	-0.0286	0.3583	0.0378	-18.7	7.1	19.4	-1100	-243	1727	
217	147	0.9323	-0.0288	0.3583	0.0396	-2.3	-3.7	19.2	-1015	-208	1763	
218	147	0.9320	-0.0295	0.3587	0.0415	-38.9	17.5	29.7	-1109	-332	1594	
219	147	0.9319	-0.0307	0.3588	0.0437	-16.2	0.6	20.3	-1109	-269	1813	
220	147	0.9316	-0.0319	0.3591	0.0454	-40.0	6.9	21.9	-997	-582	1763	
221	147	0.9315	-0.0325	0.3592	0.0469	1.0	-2.2	11.0	-1021	-193	1725	
222	147	0.9315	-0.0339	0.3583	0.0527	1.8	6.3	13.7	-1116	-29	1589	
223	147	0.9312	-0.0339	0.3588	0.0541	-11.8	8.3	20.4	-1120	-441	1761	
224	147	0.9311	-0.0341	0.3590	0.0553	-5.3	-3.7	8.4	-992	-331	1863	
225	147	0.9310	-0.0345	0.3589	0.0559	-11.2	5.4	4.2	-1100	-186	1613	
226	147	0.9308	-0.0347	0.3594	0.0569	-6.7	3.5	11.7	-1050	-168	1694	
227	147	0.9307	-0.0351	0.3594	0.0577	-8.9	0.7	5.6	-1060	-267	1737	
228	147	0.9305	-0.0374	0.3586	0.0636	3.7	7.1	5.8	-1049	-193	1696	
229	147	0.9302	-0.0380	0.3592	0.0643	-13.7	7.1	7.3	-1080	-297	1755	
230	147	0.9299	-0.0391	0.3598	0.0652	-24.6	10.4	6.2	-1119	-223	1703	
231	147	0.9295	-0.0403	0.3604	0.0662	-12.6	8.7	5.3	-1064	-238	1684	
232	147	0.9294	-0.0407	0.3606	0.0665	-5.0	3.0	1.1	-1090	-304	1792	
233	147	0.9293	-0.0417	0.3607	0.0668	-12.2	3.6	-1.9	-1102	-309	1698	
234	147	0.9292	-0.0446	0.3598	0.0720	-5.9	2.5	-2.5	-1057	-216	1718	
235	147	0.9291	-0.0446	0.3599	0.0720	2.5	1.7	1.8	-1098	-258	1718	
236	147	0.9291	-0.0443	0.3600	0.0718	3.2	1.8	0.0	-1053	-224	1706	
237	147	0.9291	-0.0445	0.3600	0.0720	-1.2	2.8	2.2	-1137	-167	1726	
238	147	0.9290	-0.0444	0.3601	0.0721	1.2	2.0	4.3	-1065	-172	1688	
239	147	0.9288	-0.0446	0.3605	0.0727	-6.8	4.5	6.8	-1045	-119	1715	
240	147	0.9285	-0.0467	0.3597	0.0795	-4.3	3.3	10.7	-1046	-166	1753	
241	147	0.9283	-0.0467	0.3601	0.0805	-11.5	4.2	11.8	-1084	-155	1738	
242	147	0.9280	-0.0473	0.3603	0.0816	-14.4	4.6	12.3	-1107	-141	1785	
243	147	0.9279	-0.0472	0.3605	0.0824	4.3	0.7	8.4	-1058	-53	1693	
244	147	0.9279	-0.0470	0.3603	0.0829	-8.6	-3.3	4.8	-1068	-160	1726	
245	147	0.9278	-0.0478	0.3604	0.0840	-12.5	0.4	10.4	-1132	-179	1710	
246	147	0.9274	-0.0503	0.3593	0.0911	-1.5	1.8	11.5	-1063	-245	1646	
247	147	0.9272	-0.0506	0.3594	0.0921	-8.9	1.6	12.6	-1079	-197	1693	
248	147	0.9270	-0.0504	0.3598	0.0932	-1.9	5.2	19.8	-1125	-144	1697	
249	147	0.9267	-0.0503	0.3603	0.0942	-7.0	5.9	14.5	-1082	-163	1641	
250	147	0.9265	-0.0506	0.3605	0.0952	-2.8	5.0	14.5	-1167	-234	1795	
251	147	0.9263	-0.0506	0.3607	0.0961	-2.8	-1.0	9.6	-1045	-220	1672	
252	147	0.9258	-0.0527	0.3597	0.1034	-5.7	-1.8	17.9	-1066	-209	1732	
253	147	0.9256	-0.0533	0.3597	0.1050	-17.1	3.3	17.5	-1146	-229	1688	
254	147	0.9254	-0.0540	0.3598	0.1063	-14.6	0.5	12.8	-1075	-224	1711	
255	147	0.9252	-0.0546	0.3596	0.1075	-15.3	-0.6	12.9	-1085	-246	1730	
0	147	0.9251	-0.0549	0.3597	0.1088	-4.9	1.9	17.6	-1086	-136	1644	
1	147	0.9249	-0.0543	0.3599	0.1100	2.0	3.7	21.8	-1141	-107	1645	
2	147	0.9239	-0.0566	0.3593	0.1188	0.1	4.5	18.7	-1132	-275	1833	
3	147	0.9237	-0.0567	0.3593	0.1202	-12.9	0.4	15.9	-1140	-243	1666	
4	147	0.9234	-0.0575	0.3595	0.1216	-17.3	7.6	14.8	-1081	-242	1710	
5	147	0.9231	-0.0580	0.3597	0.1230	-6.5	-0.1	15.0	-1103	-71	1690	
6	147	0.9229	-0.0580	0.3598	0.1241	-2.0	0.8	14.6	-1112	-71	1672	
7	147	0.9226	-0.0577	0.3601	0.1254	-8.0	6.8	20.8	-1117	-221	1718	
8	147	0.9216	-0.0611	0.3589	0.1346	-11.8	-0.7	13.6	-1075	-347	1779	
9	147	0.9214	-0.0616	0.3588	0.1358	-8.9	-0.7	12.9	-1064	-253	1719	
10	147	0.9212	-0.0622	0.3587	0.1370	-15.1	1.5	11.8	-1118	-236	1623	
11	147	0.9210	-0.0625	0.3588	0.1382	-2.5	4.7	15.0	-1134	-207	1671	
12	147	0.9207	-0.0626	0.3590	0.1395	-10.6	3.8	20.3	-1126	-307	1718	
13	147	0.9205	-0.0620	0.3594	0.1403	8.8	2.7	13.2	-1094	-234	1705	
14	147	0.9192	-0.0649	0.3584	0.1494	-5.8	6.7	15.4	-1103	-303	1759	
15	147	0.9190	-0.0656	0.3585	0.1505	-7.4	4.3	7.9	-1199	-169	1674	
16	147	0.9187	-0.0659	0.3587	0.1513	-5.9	3.3	7.9	-1123	-137	1655	
17	147	0.9185	-0.0664	0.3588	0.1523	-12.7	3.0	7.7	-1097	-146	1662	
18	147	0.9182	-0.0668	0.3591	0.1530	-6.8	3.7	7.7	-1082	-228	1701	
19	147	0.9181	-0.0667	0.3592	0.1537	-0.9	2.8	12.2	-1083	-237	1670	
20	147	0.9170	-0.0697	0.3580	0.1616	-3.1	3.4	9.0	-1097	-268	1723	
21	147	0.9167	-0.0699	0.3583	0.1623	-7.5	5.7	8.5	-1090	-378	1815	
22	147	0.9165	-0.0703	0.3586	0.1630	-6.0	4.2	7.3	-1085	-335	1744	
23	147	0.9162	-0.0704	0.3589	0.1636	-4.8	5.4	9.7	-1080	-272	1693	
24	147	0.9160	-0.0703	0.3593	0.1640	6.2	5.1	7.3	-1078	-272	1745	
25	147	0.9158	-0.0694	0.3598	0.1644	6.5	5.0	11.2	-1092	-255	1744	
26	147	0.9145	-0.0724	0.3586	0.1726	-8.4	5.1	8.4	-1096	-342	1821	
27	147	0.9143	-0.0726	0.3588	0.1733	-4.8	3.4	7.6	-1128	-179	1666	
28	147	0.9141	-0.0731	0.3589	0.1740	-10.4	2.4	6.1	-1098	-268	1707	
29	147	0.9140	-0.0736	0.3588	0.1746	-7.8	-0.8	3.8	-1113	-279	1701	
30	147	0.9138	-0.0740	0.3587	0.1751	-7.8	1.2	3.7	-1102	-271	1745	
31	147	0.9138	-0.0740	0.3589	0.1754	-1.7	0.9	5.3	-1094	-238	1677	
32	147	0.9124	-0.0770	0.3575	0.1835	3.1	0.9	4.1	-1094	-264	1664	
33	147	0.9124	-0.0768	0.3576	0.1838	0.1	2.2	3.9	-1098	-310	1728	
34	147	0.9122	-0.0769	0.3577	0.1841	0.4	1.7	4.3	-1136	-232	1710	
35	147	0.9121	-0.0767	0.3579	0.1844	-0.7	0.8	5.4	-1102	-196	1727	
36	147	0.9120	-0.0766	0.3579	0.1848	-0.3	0.9	5.1	-1129	-145	1707	
37	147	0.9119	-0.0764	0.3580	0.1852	-1.8	1.9	7.0	-1126	-157	1691	
38	147	0.9104	-0.0794	0.3569	0.1935	-8.3	3.9	7.6	-1134	-158	1677	
39	147	0.9102	-0.0796	0.3571	0.1941	-0.7	3.4	9.2	-1108	-197	1684	
40	147	0.9100	-0.0797	0.3572	0.1948	-5.2	1.4	9.6	-1110	-295	1708	
41	147	0.9098	-0.0797	0.3574	0.1955	0.1	3.6	9.4	-1106	-204	1694	
42	147	0.9096	-0.0798	0.3576	0.1960	-5.0	0.7	6.4	-1087	-256	1686	
43	147	0.9094	-0.0797	0.3578	0.1965	1.4	2.3	5.4	-1089	-257	1703	
44	147	0.9078	-0.0828	0.3562	0.2051	1.7	1.2	7.1	-1095	-223	1677	
45	147	0.9077	-0.0829	0.3563	0.2055	-4.5	1.8	5.4	-1115	-186	1657	
46	147	0.9074	-0.0832	0.3565	0.2062	-5.4	3.7	8.8	-1122	-213	1672	
47	147	0.9072	-0.0837	0.3565	0.2069	-13.4	2.1	7.3	-1113	-142	1716	
48	147	0.9069	-0.0842	0.3566	0.2078	-8.7	3.9	10.7	-1153	-82	1659	
49	147	0.9066	-0.0844	0.3570	0.2086	-6.0	5.1	10.7	-1131	-118	1672	
50	147	0.9046	-0.0875	0.3558	0.2175	0.4	3.5	12.0	-1145	-137	1667	
51	147	0.9044	-0.0873	0.3560	0.2182	-0.2	0.6	9.2	-1154	-146	1720	
52	147	0.9043	-0.0872	0.3561	0.2188	-3.5	0.1	10.0	-1068	-330	1717	
53	147	0.9041	-0.0873	0.3560	0.2194	-4.0	0.8	7.3	-1122	-183	1662	
54	147	0.9040	-0.0873	0.3560	0.2198	2.5	2.3	8.5	-1134	-107	1685	
55	147	0.9039	-0.0867	0.3563	0.2203	7.4	1.9	11.9	-1149	-97	1716	
56	147	0.9020	-0.0891	0.3551	0.2288	4.3	0.8	10.6	-1151	-98	1651	
57	147	0.9017	-0.0885	0.3554	0.2295	5.7	3.1	15.1	-1148	-95	1645	
58	147	0.9015	-0.0881	0.3556	0.2305	-3.7	2.3	14.0	-1152	-75	1687	
59	147	0.9011	-0.0883	0.3557	0.2316	-12.5	2.0	11.8	-1076	-257	1759	
60	147	0.9008	-0.0886	0.3556	0.2326	-10.6	-1.6	10.5	-1086	-235	1717	
61	147	0.9005	-0.0885	0.3559	0.2334	-1.5	5.3	15.3	-1111	-270	1686	
62	147	0.8986	-0.0913	0.3546	0.2415	6.9	4.4	9.7	-1124	-173	1739	
63	147	0.8984	-0.0909	0.3548	0.2422	0.6	4.2	13.6	-1169	-233	1701	
64	147	0.8981	-0.0909	0.3551	0.2430	-3.7	4.6	11.3	-1119	-211	1642	
65	147	0.8978	-0.0910	0.3554	0.2438	-7.2	2.1	9.3	-1072	-398	1778	
66	147	0.8976	-0.0911	0.3555	0.2441	-0.7	3.2	5.7	-1106	-287	1687	
67	147	0.8974	-0.0911	0.3557	0.2446	-2.4	1.8	6.0	-1114	-203	1670	
68	147	0.8953	-0.0944	0.3541	0.2530	-1.6	2.5	5.6	-1138	-238	1696	
69	147	0.8952	-0.0941	0.3544	0.2534	3.6	2.6	6.0	-1089	-231	1677	
70	147	0.8951	-0.0939	0.3545	0.2535	4.5	0.9	4.6	-1100	-281	1703	
71	147	0.8951	-0.0935	0.3546	0.2535	2.6	-1.5	0.7	-1063	-389	1714	
72	147	0.8952	-0.0935	0.3545	0.2534	0.6	-2.1	-2.0	-1083	-312	1701	
73	147	0.8953	-0.0932	0.3544	0.2532	7.5	-1.4	0.4	-1112	-227	1686	
74	147	0.8936	-0.0953	0.3530	0.2603	16.1	-0.6	-0.7	-1135	-215	1688	
75	147	0.8937	-0.0941	0.3533	0.2598	19.8	-1.1	-0.1	-1132	-183	1682	
76	147	0.8940	-0.0926	0.3535	0.2592	24.3	-4.0	0.3	-1126	-182	1685	
77	147	0.8943	-0.0908	0.3536	0.2586	27.2	-6.7	-0.3	-1137	-170	1681	
78	147	0.8947	-0.0887	0.3535	0.2580	27.0	-12.7	1.8	-1140	-163	1692	
79	147	0.8953	-0.0866	0.3530	0.2576	26.7	-15.7	2.9	-1118	-152	1715	
80	147	0.8941	-0.0873	0.3510	0.2642	26.7	-16.7	3.7	-1120	-148	1712	
81	147	0.8947	-0.0852	0.3506	0.2633	35.7	-6.2	-22.9	-1023	-513	1974	
82	147	0.8952	-0.0839	0.3513	0.2610	23.7	8.2	-24.3	-1057	-330	1703	
83	147	0.8956	-0.0834	0.3517	0.2594	9.7	-8.1	-7.8	-1242	-168	1601	
84	147	0.8956	-0.0831	0.3524	0.2582	16.5	14.7	-16.5	-950	-416	1763	
85	147	0.8957	-0.0824	0.3535	0.2565	22.2	9.8	-16.5	-1131	-217	1771	
86	147	0.8943	-0.0849	0.3525	0.2622	11.2	6.2	-23.3	-1000	-488	1665	
87	147	0.8946	-0.0850	0.3529	0.2607	18.2	5.3	-18.5	-1028	-466	1801	
88	147	0.8950	-0.0840	0.3538	0.2582	26.8	2.5	-33.8	-1051	-233	1742	
89	147	0.8956	-0.0839	0.3541	0.2557	-1.0	-2.0	-36.9	-800	-659	1688	
90	147	0.8963	-0.0844	0.3540	0.2533	11.8	-2.8	-34.0	-1013	-537	1803	
91	147	0.8972	-0.0841	0.3540	0.2502	34.6	9.0	-43.0	-1273	-78	1640	
92	147	0.8964	-0.0867	0.3532	0.2531	14.7	2.6	-25.5	-980	-707	1781	
93	147	0.8971	-0.0868	0.3534	0.2504	17.5	4.3	-30.7	-1094	-213	1704	
94	147	0.8978	-0.0859	0.3540	0.2474	30.5	8.5	-40.3	-1100	-108	1730	
95	147	0.8985	-0.0865	0.3540	0.2447	-5.9	3.8	-38.9	-1130	-54	1630	
96	147	0.8991	-0.0872	0.3541	0.2422	14.6	5.3	-35.1	-1144	-105	1811	
97	147	0.8997	-0.0870	0.3544	0.2396	20.3	4.2	-32.2	-1105	-46	1624	
98	147	0.8990	-0.0882	0.3538	0.2424	21.4	-1.9	-40.5	-1019	201	1707	
99	147	0.8995	-0.0882	0.3540	0.2402	5.1	1.1	-25.4	-1093	-13	1583	
100	147	0.8999	-0.0884	0.3544	0.2380	3.5	4.2	-26.5	-1048	-143	1803	
101	147	0.9004	-0.0885	0.3545	0.2360	22.4	2.7	-27.4	-1207	139	1749	
102	147	0.9010	-0.0873	0.3550	0.2335	30.8	-0.1	-23.2	-1126	-86	1744	
103	147	0.9014	-0.0867	0.3552	0.2320	13.5	3.1	-8.5	-1158	-149	1641	
104	147	0.9007	-0.0888	0.3540	0.2355	-9.0	-3.2	-10.8	-1052	-448	1676	
105	147	0.9011	-0.0874	0.3547	0.2336	44.5	9.9	-24.5	-1203	157	1705	
106	147	0.9013	-0.0867	0.3551	0.2323	8.9	4.8	-7.8	-1095	-283	1689	
107	147	0.9016	-0.0861	0.3555	0.2309	10.4	-0.2	-17.0	-994	-479	1932	
108	147	0.9018	-0.0860	0.3560	0.2295	10.0	4.3	-22.5	-1140	-55	1662	
109	147	0.9021	-0.0854	0.3564	0.2279	31.5	3.2	-24.2	-1154	239	1737	
110	147	0.9017	-0.0857	0.3556	0.2303	5.6	-7.0	-15.4	-947	-771	1637	
111	147	0.9019	-0.0858	0.3559	0.2291	22.6	24.3	-14.6	-1275	28	1692	
112	147	0.9020	-0.0864	0.3562	0.2280	-0.7	3.2	-29.7	-1272	282	1505	
113	147	0.9023	-0.0871	0.3562	0.2264	3.4	1.0	-23.6	-1044	-231	1684	
114	147	0.9026	-0.0867	0.3567	0.2246	20.3	5.6	-17.6	-1147	58	1749	
115	147	0.9030	-0.0864	0.3570	0.2230	13.1	2.1	-19.2	-974	-328	1725	
116	147	0.9030	-0.0865	0.3563	0.2241	54.9	8.3	-20.7	-1184	384	1562	
117	147	0.9033	-0.0847	0.3575	0.2215	41.0	11.9	-26.2	-1058	17	1820	
118	147	0.9037	-0.0847	0.3575	0.2199	-3.2	-5.4	-15.4	-1045	-406	1547	
119	147	0.9040	-0.0851	0.3576	0.2183	11.2	6.0	-18.0	-1031	-376	1917	
120	147	0.9042	-0.0852	0.3576	0.2174	12.5	-0.4	-15.2	-1048	16	1738	
121	147	0.9047	-0.0840	0.3583	0.2146	40.3	5.7	-36.2	-1114	125	1787	
122	147	0.9045	-0.0846	0.3578	0.2159	-6.4	-1.4	-19.3	-1213	128	1511	
123	147	0.9048	-0.0844	0.3576	0.2154	19.1	3.1	-9.8	-1163	236	1639	
124	147	0.9048	-0.0846	0.3584	0.2138	-2.3	15.1	-14.3	-1100	-150	1705	
125	147	0.9048	-0.0850	0.3597	0.2117	11.1	21.0	-18.6	-1067	-187	1789	
126	147	0.9053	-0.0850	0.3595	0.2096	-1.0	-11.5	-16.3	-1046	-354	1712	
127	147	0.9056	-0.0842	0.3596	0.2084	18.2	0.7	-22.6	-1046	-64	1750	
128	147	0.9055	-0.0842	0.3595	0.2089	8.5	10.0	-26.4	-1128	86	1707	
129	147	0.9056	-0.0846	0.3595	0.2082	2.6	-1.4	-6.0	-1112	-276	1788	
130	147	0.9057	-0.0835	0.3600	0.2075	23.5	4.8	-7.7	-1154	66	1737	
131	147	0.9059	-0.0827	0.3603	0.2065	8.5	-3.4	-4.5	-1023	-252	1746	
132	147	0.9062	-0.0812	0.3608	0.2051	24.0	2.4	-15.6	-1131	39	1719	
133	147	0.9065	-0.0808	0.3608	0.2038	5.1	0.6	-12.8	-1164	-209	1675	
134	147	0.9068	-0.0808	0.3604	0.2033	10.8	2.6	-5.7	-1118	-7	1669	
135	147	0.9068	-0.0805	0.3607	0.2028	4.5	2.6	-6.4	-1102	-62	1751	
136	147	0.9069	-0.0799	0.3611	0.2018	16.8	4.8	-7.5	-1115	0	1768	
137	147	0.9070	-0.0789	0.3617	0.2008	12.0	3.0	-7.9	-1093	-175	1743	
138	147	0.9070	-0.0786	0.3620	0.2003	9.7	4.0	-4.9	-1129	-39	1679	
139	147	0.9070	-0.0786	0.3621	0.1998	-7.6	-2.2	-6.7	-1093	-140	1625	
140	147	0.9075	-0.0784	0.3615	0.1988	19.2	3.6	-8.9	-1167	120	1615	
141	147	0.9076	-0.0779	0.3619	0.1979	4.4	5.7	-9.4	-1149	0	1684	
142	147	0.9076	-0.0780	0.3620	0.1977	-4.8	-1.8	-0.7	-1094	-310	1775	
143	147	0.9076	-0.0781	0.3620	0.1976	4.3	1.7	-1.5	-1120	-37	1689	
144	147	0.9077	-0.0779	0.3623	0.1967	0.1	2.5	-9.9	-1101	-134	1660	
145	147	0.9078	-0.0780	0.3623	0.1964	0.7	-0.8	-4.0	-1108	-166	1710	
146	147	0.9084	-0.0782	0.3614	0.1952	-12.8	-4.5	-9.6	-1034	-310	1718	
147	147	0.9086	-0.0786	0.3609	0.1947	-3.2	-4.3	-11.8	-1064	-196	1736	
148	147	0.9090	-0.0785	0.3606	0.1937	10.1	-2.9	-16.7	-1086	-102	1771	
149	147	0.9091	-0.0783	0.3606	0.1930	4.6	-1.4	-5.7	-1127	-47	1655	
150	147	0.9093	-0.0782	0.3605	0.1926	9.5	0.2	-4.0	-1079	-66	1752	
151	147	0.9094	-0.0778	0.3607	0.1919	5.9	4.0	-5.1	-1092	-188	1738	
152	147	0.9098	-0.0777	0.3600	0.1909	4.2	2.5	-4.6	-1111	-111	1715	
153	147	0.9099	-0.0777	0.3601	0.1906	2.7	1.4	-4.3	-1109	-118	1707	
154	147	0.9099	-0.0781	0.3601	0.1903	-4.2	-0.5	-1.0	-1061	-257	1687	
155	147	0.9100	-0.0781	0.3602	0.1898	5.9	1.1	-6.9	-1059	-135	1727	
156	147	0.9101	-0.0780	0.3604	0.1892	2.8	1.8	-6.4	-1077	-226	1738	
157	147	0.9102	-0.0779	0.3604	0.1886	11.1	1.8	-9.2	-1092	-92	1694	
158	147	0.9108	-0.0774	0.3599	0.1869	7.0	2.1	-11.9	-1053	-144	1756	
159	147	0.9109	-0.0774	0.3600	0.1861	2.0	2.0	-8.5	-1095	-146	1694	
160	147	0.9109	-0.0775	0.3603	0.1852	9.7	6.5	-9.5	-1148	-20	1677	
161	147	0.9109	-0.0772	0.3607	0.1847	2.5	5.9	-4.3	-1094	-101	1734	
162	147	0.9107	-0.0770	0.3615	0.1842	7.5	9.3	-3.7	-1121	56	1706	
163	147	0.9106	-0.0767	0.3621	0.1837	7.6	8.8	-4.2	-1122	-68	1716	
164	147	0.9110	-0.0760	0.3622	0.1820	7.3	9.3	1.8	-1128	-32	1689	
165	147	0.9108	-0.0754	0.3629	0.1815	12.7	10.1	-5.1	-1126	94	1640	
166	147	0.9107	-0.0746	0.3638	0.1807	9.8	10.3	-5.0	-1096	-123	1742	
167	147	0.9105	-0.0739	0.3648	0.1803	22.6	13.9	0.5	-1159	94	1735	
168	147	0.9103	-0.0737	0.3656	0.1796	-1.0	9.1	-3.8	-1092	-163	1679	
169	147	0.9101	-0.0740	0.3659	0.1796	1.1	6.8	1.8	-1146	-19	1678	
170	147	0.9106	-0.0728	0.3661	0.1771	5.8	9.6	2.0	-1129	9	1689	
171	147	0.9103	-0.0720	0.3671	0.1770	13.2	14.0	7.6	-1196	73	1706	
172	147	0.9099	-0.0712	0.3682	0.1770	7.6	13.0	2.1	-1078	-139	1703	
173	147	0.9096	-0.0712	0.3692	0.1767	1.0	14.0	-3.6	-1109	-230	1702	
174	147	0.9093	-0.0720	0.3698	0.1765	-12.2	7.8	-0.7	-1086	-258	1674	
175	147	0.9091	-0.0725	0.3701	0.1769	6.3	10.3	10.1	-1172	13	1647	
176	147	0.9093	-0.0706	0.3708	0.1750	17.3	15.4	2.1	-1146	58	1682	
177	147	0.9089	-0.0693	0.3722	0.1749	20.2	14.5	8.7	-1126	-114	1685	
178	147	0.9086	-0.0690	0.3732	0.1741	10.7	16.1	-8.1	-1128	-237	1711	
179	147	0.9083	-0.0694	0.3742	0.1734	-8.4	12.9	-6.8	-1100	-247	1681	
180	147	0.9081	-0.0705	0.3744	0.1736	-16.2	1.8	-2.1	-1138	-139	1675	
181	147	0.9080	-0.0709	0.3745	0.1737	4.2	3.6	0.0	-1179	-13	1673	
182	147	0.9085	-0.0693	0.3746	0.1715	12.4	6.2	-1.0	-1167	-36	1651	
183	147	0.9084	-0.0688	0.3751	0.1710	8.7	6.0	-4.7	-1147	-182	1711	
184	147	0.9084	-0.0690	0.3753	0.1705	-3.2	2.3	-4.7	-1117	-227	1674	
185	147	0.9084	-0.0693	0.3755	0.1701	0.6	4.0	-5.3	-1148	-18	1684	
186	147	0.9084	-0.0697	0.3756	0.1698	-7.5	0.1	-8.7	-1156	-103	1688	
187	147	0.9084	-0.0703	0.3754	0.1697	-8.4	-1.1	-5.1	-1136	-194	1700	
188	147	0.9093	-0.0698	0.3748	0.1666	3.1	2.8	-7.2	-1147	30	1658	
189	147	0.9093	-0.0700	0.3750	0.1661	0.2	3.5	-4.8	-1167	-64	1641	
190	147	0.9093	-0.0702	0.3752	0.1657	-0.9	2.6	-7.4	-1157	-86	1685	
191	147	0.9093	-0.0703	0.3753	0.1653	1.6	2.3	-7.4	-1160	-36	1691	
192	147	0.9094	-0.0706	0.3753	0.1647	-1.0	0.9	-6.2	-1150	-50	1624	
193	147	0.9094	-0.0705	0.3755	0.1644	7.5	2.6	-3.0	-1176	133	1649	
194	147	0.9098	-0.0698	0.3751	0.1634	1.3	2.8	-5.0	-1170	-59	1661	
195	147	0.9098	-0.0699	0.3753	0.1630	-1.4	2.8	-4.9	-1127	-124	1706	
196	147	0.9097	-0.0701	0.3754	0.1628	-0.3	2.9	-2.1	-1141	-56	1680	
197	147	0.9096	-0.0701	0.3756	0.1628	1.8	2.8	0.7	-1158	-14	1667	
198	147	0.9095	-0.0700	0.3759	0.1628	1.3	2.9	1.3	-1162	-96	1682	
199	147	0.9095	-0.0699	0.3760	0.1628	1.1	2.7	1.0	-1137	-94	1686	
200	147	0.9102	-0.0688	0.3757	0.1602	0.5	2.7	0.9	-1142	-119	1680	
201	147	0.9101	-0.0688	0.3758	0.1602	0.4	2.1	0.6	-1151	-120	1686	
202	147	0.9101	-0.0688	0.3760	0.1602	0.6	1.7	0.6	-1135	-122	1680	
203	147	0.9100	-0.0688	0.3761	0.1603	0.9	2.0	0.8	-1140	-116	1669	
204	147	0.9099	-0.0687	0.3763	0.1603	1.5	1.9	1.0	-1149	-112	1684	
205	147	0.9099	-0.0686	0.3764	0.1603	1.1	2.3	0.9	-1139	-118	1692	
206	147	0.9105	-0.0678	0.3759	0.1579	0.5	1.8	0.8	-1142	-126	1697	
207	147	0.9105	-0.0678	0.3761	0.1580	0.1	1.7	0.5	-1138	-127	1696	
208	147	0.9104	-0.0678	0.3762	0.1580	0.0	2.6	0.3	-1143	-121	1674	
209	147	0.9103	-0.0678	0.3764	0.1580	0.0	2.8	0.5	-1138	-114	1679	
210	147	0.9102	-0.0678	0.3766	0.1580	-0.2	2.8	0.4	-1146	-122	1677	
211	147	0.9102	-0.0678	0.3768	0.1580	-0.3	2.7	0.4	-1146	-124	1678	
212	147	0.9110	-0.0667	0.3764	0.1545	-0.1	2.3	0.6	-1146	-118	1673	
213	147	0.9109	-0.0667	0.3766	0.1545	-0.3	2.9	0.2	-1152	-120	1681	
214	147	0.9108	-0.0668	0.3768	0.1546	-0.2	3.1	0.3	-1145	-113	1664	
215	147	0.9107	-0.0669	0.3770	0.1546	-0.3	3.0	0.0	-1146	-118	1691	
216	147	0.9107	-0.0669	0.3772	0.1546	-0.3	2.3	0.3	-1151	-128	1686	
217	147	0.9106	-0.0669	0.3773	0.1546	-0.4	1.2	0.4	-1163	-114	1680	
218	147	0.9113	-0.0662	0.3768	0.1523	-0.2	1.4	0.3	-1145	-115	1667	
219	147	0.9112	-0.0662	0.3769	0.1523	-0.1	1.8	0.3	-1146	-106	1684	
220	147	0.9112	-0.0663	0.3770	0.1524	-0.4	2.1	0.1	-1145	-117	1684	
221	147	0.9111	-0.0663	0.3771	0.1524	-0.8	2.0	0.0	-1144	-122	1667	
222	147	0.9110	-0.0664	0.3773	0.1524	-0.9	2.6	-0.1	-1139	-123	1676	
223	147	0.9109	-0.0665	0.3775	0.1524	-0.7	2.5	0.1	-1150	-115	1668	
224	147	0.9115	-0.0659	0.3770	0.1504	-0.6	3.1	0.0	-1138	-118	1675	
225	147	0.9114	-0.0660	0.3772	0.1504	-0.4	3.4	0.3	-1143	-127	1689	
226	147	0.9113	-0.0661	0.3774	0.1505	-0.3	3.3	0.3	-1142	-127	1677	
227	147	0.9112	-0.0661	0.3776	0.1505	-0.3	3.3	0.4	-1142	-124	1686	
228	147	0.9111	-0.0662	0.3779	0.1505	-0.3	3.7	0.6	-1148	-117	1670	
229	147	0.9110	-0.0662	0.3781	0.1505	-0.1	4.0	0.3	-1161	-95	1634	
230	147	0.9115	-0.0657	0.3778	0.1487	-0.4	4.1	0.0	-1159	-125	1682	
231	147	0.9114	-0.0657	0.3780	0.1487	-0.4	3.5	0.1	-1149	-119	1665	
232	147	0.9113	-0.0658	0.3783	0.1487	-0.7	3.6	0.1	-1147	-115	1674	
233	147	0.9112	-0.0659	0.3785	0.1487	-0.7	4.1	-0.1	-1145	-121	1672	
234	147	0.9110	-0.0660	0.3788	0.1487	-0.5	4.4	-0.2	-1152	-117	1675	
235	147	0.9109	-0.0661	0.3791	0.1487	-0.6	4.9	-0.3	-1155	-122	1671	
236	147	0.9114	-0.0655	0.3788	0.1465	-0.7	5.4	-0.3	-1154	-131	1663	
237	147	0.9113	-0.0656	0.3792	0.1465	-0.7	5.9	-0.1	-1151	-133	1668	
238	147	0.9111	-0.0658	0.3796	0.1465	-1.0	6.5	-0.1	-1158	-124	1673	
239	147	0.9109	-0.0660	0.3800	0.1465	-0.9	7.1	-0.3	-1158	-130	1662	
240	147	0.9107	-0.0661	0.3805	0.1464	-1.2	7.5	-0.2	-1165	-129	1677	
241	147	0.9105	-0.0663	0.3810	0.1464	-1.2	7.8	-0.4	-1169	-126	1677	
242	147	0.9110	-0.0658	0.3808	0.1440	-0.9	5.7	-1.5	-1172	-245	1574	
243	147	0.9110	-0.0659	0.3807	0.1440	-3.6	-14.8	0.4	-1501	-80	1570	
244	147	0.9113	-0.0658	0.3800	0.1442	1.0	3.6	0.2	-1051	-183	1786	
245	147	0.9113	-0.0656	0.3800	0.1442	2.0	0.3	1.9	-1138	-130	1659	
246	147	0.9112	-0.0656	0.3801	0.1442	0.6	1.0	0.5	-1163	-133	1696	
247	147	0.9112	-0.0656	0.3802	0.1443	0.6	1.3	0.9	-1167	-128	1680	
248	147	0.9118	-0.0648	0.3798	0.1420	0.5	2.5	0.6	-1146	-116	1660	
249	147	0.9117	-0.0647	0.3799	0.1420	0.1	2.2	0.4	-1158	-119	1668	
250	147	0.9117	-0.0648	0.3801	0.1420	0.3	2.3	0.4	-1169	-134	1681	
251	147	0.9116	-0.0648	0.3802	0.1420	0.0	2.0	0.1	-1160	-132	1671	
252	147	0.9116	-0.0648	0.3804	0.1420	0.1	1.8	0.4	-1160	-132	1675	
253	147	0.9115	-0.0648	0.3805	0.1421	0.1	1.8	0.2	-1159	-128	1656	
254	147	0.9121	-0.0640	0.3800	0.1398	0.0	1.4	0.3	-1163	-128	1669	
255	147	0.9121	-0.0640	0.3800	0.1398	0.0	0.7	0.4	-1162	-130	1661	
0	147	0.9121	-0.0640	0.3800	0.1398	-0.1	-0.3	0.4	-1160	-135	1674	
1	147	0.9121	-0.0640	0.3800	0.1399	-0.3	-0.5	0.4	-1155	-122	1669	
2	147	0.9121	-0.0640	0.3799	0.1399	-0.1	-0.6	0.1	-1156	-123	1686	
3	147	0.9121	-0.0640	0.3799	0.1399	-0.1	-0.6	0.5	-1157	-126	1660	
4	147	0.9127	-0.0635	0.3792	0.1385	0.0	-0.1	0.4	-1159	-126	1677	
5	147	0.9127	-0.0635	0.3792	0.1385	0.0	-0.1	0.1	-1154	-128	1669	
6	147	0.9127	-0.0635	0.3792	0.1386	0.1	0.4	0.6	-1156	-127	1679	
7	147	0.9127	-0.0635	0.3792	0.1386	0.4	0.1	0.4	-1157	-123	1679	
8	147	0.9127	-0.0634	0.3792	0.1386	0.6	0.0	0.4	-1158	-127	1662	
9	147	0.9127	-0.0634	0.3792	0.1386	0.4	-0.3	0.4	-1160	-136	1680	
10	147	0.9134	-0.0625	0.3785	0.1362	0.1	-1.2	0.6	-1160	-127	1668	
11	147	0.9134	-0.0625	0.3784	0.1362	0.2	-1.7	0.4	-1157	-134	1674	
12	147	0.9134	-0.0624	0.3782	0.1363	0.1	-2.1	0.5	-1157	-128	1681	
13	147	0.9135	-0.0624	0.3781	0.1363	-0.1	-2.7	0.3	-1151	-128	1674	
14	147	0.9136	-0.0623	0.3779	0.1364	0.1	-3.1	0.1	-1151	-131	1682	
15	147	0.9137	-0.0623	0.3777	0.1364	0.3	-3.2	0.6	-1150	-135	1678	
16	147	0.9143	-0.0618	0.3768	0.1350	0.2	-3.1	0.5	-1150	-126	1684	
17	147	0.9144	-0.0617	0.3766	0.1350	0.7	-3.2	0.4	-1147	-118	1705	
18	147	0.9145	-0.0616	0.3764	0.1350	0.6	-2.6	0.9	-1147	-134	1676	
19	147	0.9145	-0.0616	0.3762	0.1350	0.6	-1.8	0.7	-1130	-126	1688	
20	147	0.9146	-0.0615	0.3761	0.1351	0.5	-1.0	0.5	-1141	-132	1686	
21	147	0.9146	-0.0614	0.3761	0.1351	0.2	-0.4	0.5	-1137	-123	1687	
22	147	0.9150	-0.0614	0.3753	0.1348	0.3	0.1	0.6	-1139	-122	1685	
23	147	0.9149	-0.0613	0.3753	0.1348	0.1	0.7	0.6	-1138	-125	1677	
24	147	0.9149	-0.0613	0.3754	0.1349	0.0	1.0	0.7	-1149	-120	1687	
25	147	0.9149	-0.0613	0.3755	0.1349	0.3	1.0	0.7	-1141	-129	1691	
26	147	0.9149	-0.0613	0.3756	0.1350	0.3	1.2	0.4	-1138	-133	1696	
27	147	0.9148	-0.0613	0.3756	0.1350	0.4	1.2	0.6	-1133	-129	1688	
28	147	0.9154	-0.0606	0.3750	0.1332	0.4	1.0	0.3	-1143	-116	1683	
29	147	0.9153	-0.0606	0.3751	0.1332	0.1	0.9	0.9	-1142	-121	1684	
30	147	0.9153	-0.0606	0.3751	0.1332	0.1	0.9	0.6	-1146	-128	1695	
31	147	0.9153	-0.0605	0.3752	0.1332	0.3	1.0	0.6	-1144	-131	1680	
32	147	0.9152	-0.0605	0.3753	0.1333	0.0	1.4	0.6	-1144	-127	1682	
33	147	0.9152	-0.0605	0.3753	0.1333	0.3	1.4	0.5	-1142	-128	1690	
34	147	0.9156	-0.0604	0.3747	0.1326	0.2	1.0	0.4	-1143	-130	1696	
35	147	0.9156	-0.0603	0.3748	0.1327	0.4	1.0	0.7	-1134	-130	1684	
36	147	0.9156	-0.0603	0.3748	0.1327	0.3	-1.0	1.0	-1105	-154	1671	
37	147	0.9156	-0.0602	0.3748	0.1328	0.2	1.0	0.9	-1154	-154	1688	
38	147	0.9155	-0.0601	0.3748	0.1328	1.2	-0.2	0.9	-1151	-102	1683	
39	147	0.9155	-0.0601	0.3749	0.1328	0.6	0.9	0.9	-1141	-139	1667	
40	147	0.9160	-0.0595	0.3744	0.1310	0.9	2.5	0.8	-1136	-116	1661	
41	147	0.9159	-0.0594	0.3746	0.1311	0.6	4.5	1.0	-1147	-126	1698	
42	147	0.9158	-0.0594	0.3749	0.1311	0.0	3.1	0.6	-1144	-140	1665	
43	147	0.9157	-0.0594	0.3751	0.1312	0.0	3.5	0.7	-1136	-132	1701	
44	147	0.9156	-0.0594	0.3753	0.1312	0.6	1.8	1.0	-1138	-104	1677	
45	147	0.9156	-0.0593	0.3754	0.1312	0.7	0.3	1.0	-1142	-125	1706	
46	147	0.9161	-0.0588	0.3746	0.1299	0.8	-1.3	1.1	-1131	-126	1697	
47	147	0.9162	-0.0587	0.3745	0.1300	0.7	-1.9	0.8	-1127	-116	1700	
48	147	0.9162	-0.0587	0.3743	0.1300	0.3	-2.1	0.9	-1139	-145	1699	
49	147	0.9163	-0.0585	0.3742	0.1301	1.6	-2.6	1.1	-1149	-128	1692	
50	147	0.9163	-0.0584	0.3741	0.1301	0.0	-1.5	0.6	-1133	-116	1672	
51	147	0.9164	-0.0584	0.3740	0.1302	0.0	-0.5	0.6	-1142	-149	1691	
52	147	0.9171	-0.0576	0.3734	0.1275	-0.1	0.0	0.6	-1137	-133	1679	
53	147	0.9170	-0.0575	0.3734	0.1276	0.4	0.7	0.4	-1129	-133	1691	
54	147	0.9170	-0.0575	0.3735	0.1276	0.6	1.4	0.5	-1141	-134	1687	
55	147	0.9170	-0.0574	0.3736	0.1277	0.4	1.4	0.9	-1136	-110	1685	
56	147	0.9169	-0.0574	0.3736	0.1277	0.7	0.7	1.0	-1134	-115	1703	
57	147	0.9169	-0.0573	0.3737	0.1278	0.6	1.0	0.8	-1120	-126	1701	
58	147	0.9173	-0.0570	0.3730	0.1268	0.4	1.0	0.3	-1128	-127	1699	
59	147	0.9173	-0.0570	0.3731	0.1269	0.4	1.3	0.9	-1126	-116	1693	
60	147	0.9172	-0.0569	0.3732	0.1269	0.3	2.1	0.7	-1136	-129	1692	
61	147	0.9172	-0.0569	0.3734	0.1269	0.2	2.5	0.7	-1131	-124	1702	
62	147	0.9171	-0.0569	0.3735	0.1270	0.3	2.0	0.6	-1138	-135	1692	
63	147	0.9171	-0.0569	0.3737	0.1270	0.3	2.0	0.6	-1138	-140	1692	
64	147	0.9174	-0.0567	0.3731	0.1262	0.1	1.7	0.7	-1128	-127	1692	
