frameId	modelId	qs	qx	qy	qz	gx	gy	gz	ax	ay	az	modelId	qs	qx	qy	qz	gx	gy	gz	ax	ay	az
114	147	-0.9862	-0.0535	-0.0808	-0.1337	3.0	-0.2	0.6	-19	175	2028	
115	147	-0.9862	-0.0537	-0.0809	-0.1337	2.3	0.7	0.4	-18	182	2010	
116	147	-0.9862	-0.0538	-0.0810	-0.1337	1.2	1.8	0.4	-21	176	2008	
117	147	-0.9862	-0.0539	-0.0811	-0.1338	0.3	2.2	0.4	-34	175	2013	
118	147	-0.9862	-0.0539	-0.0813	-0.1338	-0.3	2.8	0.3	-23	183	2020	
119	147	-0.9861	-0.0537	-0.0816	-0.1339	-2.3	4.2	0.6	-30	170	2028	
120	147	-0.9862	-0.0535	-0.0812	-0.1335	-1.2	2.8	0.3	-27	171	2021	
121	147	-0.9862	-0.0534	-0.0814	-0.1336	-0.7	3.2	0.1	-42	179	2016	
122	147	-0.9862	-0.0533	-0.0815	-0.1336	-0.6	2.3	0.6	-21	172	2036	
123	147	-0.9862	-0.0533	-0.0817	-0.1336	-0.4	2.6	0.1	-25	173	2029	
124	147	-0.9862	-0.0532	-0.0819	-0.1337	-0.7	2.4	0.5	-28	173	2031	
125	147	-0.9862	-0.0532	-0.0821	-0.1337	0.4	2.2	0.4	-25	173	2020	
126	147	-0.9861	-0.0531	-0.0816	-0.1347	1.4	1.7	0.3	-27	187	2027	
127	147	-0.9861	-0.0532	-0.0818	-0.1348	1.1	2.5	0.6	-27	177	2025	
128	147	-0.9860	-0.0532	-0.0820	-0.1348	0.5	3.1	0.3	-23	181	2033	
129	147	-0.9860	-0.0532	-0.0823	-0.1349	-0.1	3.4	0.4	-28	174	2019	
130	147	-0.9860	-0.0532	-0.0826	-0.1350	0.0	4.3	0.5	-34	182	2035	
131	147	-0.9859	-0.0532	-0.0829	-0.1350	0.7	3.9	0.3	-34	179	2032	
132	147	-0.9861	-0.0531	-0.0825	-0.1343	0.3	4.3	0.4	-34	177	2012	
133	147	-0.9860	-0.0530	-0.0828	-0.1343	-1.0	4.4	0.3	-38	166	2019	
134	147	-0.9860	-0.0529	-0.0831	-0.1344	-0.7	4.0	0.6	-46	184	2033	
135	147	-0.9860	-0.0529	-0.0834	-0.1345	-0.1	3.6	0.3	-39	181	2022	
136	147	-0.9859	-0.0529	-0.0836	-0.1345	0.7	2.6	0.6	-52	175	2028	
137	147	-0.9859	-0.0530	-0.0838	-0.1346	1.5	1.8	0.6	-49	183	2049	
138	147	-0.9861	-0.0530	-0.0833	-0.1337	1.3	1.7	0.4	-38	172	2018	
139	147	-0.9861	-0.0531	-0.0834	-0.1337	0.9	1.8	0.4	-25	171	2009	
140	147	-0.9860	-0.0531	-0.0836	-0.1338	-0.1	2.5	0.4	-32	174	2009	
141	147	-0.9860	-0.0530	-0.0838	-0.1338	-0.7	3.6	0.4	-39	181	2019	
142	147	-0.9860	-0.0530	-0.0841	-0.1339	-0.4	3.7	0.4	-32	173	2030	
143	147	-0.9860	-0.0529	-0.0844	-0.1339	-1.2	4.5	0.5	-40	173	2022	
144	147	-0.9859	-0.0526	-0.0841	-0.1348	-1.6	4.0	0.8	-50	177	2020	
145	147	-0.9859	-0.0524	-0.0844	-0.1349	-1.3	3.2	0.5	-49	165	2019	
146	147	-0.9858	-0.0524	-0.0845	-0.1349	-0.2	1.9	0.5	-54	171	2030	
147	147	-0.9858	-0.0524	-0.0847	-0.1350	1.0	1.2	0.6	-46	168	2040	
148	147	-0.9858	-0.0525	-0.0847	-0.1350	1.6	0.1	0.7	-54	178	2033	
149	147	-0.9858	-0.0526	-0.0847	-0.1350	1.7	-0.3	0.7	-48	167	2020	
150	147	-0.9857	-0.0526	-0.0842	-0.1362	2.1	-0.3	0.4	-52	179	2032	
151	147	-0.9857	-0.0528	-0.0841	-0.1362	3.2	-0.6	0.5	-54	184	2026	
152	147	-0.9857	-0.0531	-0.0841	-0.1363	3.9	-0.3	0.8	-36	179	2032	
153	147	-0.9856	-0.0533	-0.0841	-0.1363	3.3	-0.1	0.9	-47	182	2017	
154	147	-0.9856	-0.0536	-0.0842	-0.1364	2.6	0.2	1.0	-45	184	2022	
155	147	-0.9856	-0.0537	-0.0843	-0.1365	1.8	1.8	2.9	-42	194	2017	
156	147	-0.9857	-0.0538	-0.0837	-0.1361	1.6	0.7	1.0	-38	191	2022	
157	147	-0.9856	-0.0539	-0.0838	-0.1362	0.6	1.2	0.5	-40	189	2028	
158	147	-0.9856	-0.0539	-0.0839	-0.1362	-0.4	1.8	0.4	-35	190	2007	
159	147	-0.9856	-0.0538	-0.0841	-0.1363	-1.0	2.0	0.4	-43	188	2015	
160	147	-0.9856	-0.0537	-0.0842	-0.1363	-1.0	2.0	0.4	-47	183	2026	
161	147	-0.9856	-0.0536	-0.0844	-0.1364	-0.6	1.7	0.6	-37	176	2029	
162	147	-0.9855	-0.0534	-0.0839	-0.1371	-0.2	1.4	0.3	-44	186	2026	
163	147	-0.9855	-0.0534	-0.0840	-0.1372	-0.3	1.0	0.6	-42	183	2026	
164	147	-0.9855	-0.0534	-0.0840	-0.1372	0.4	0.5	0.7	-41	176	2032	
165	147	-0.9855	-0.0534	-0.0840	-0.1373	0.5	0.2	0.7	-45	173	2022	
166	147	-0.9855	-0.0535	-0.0841	-0.1373	1.2	0.3	0.6	-44	177	2010	
167	147	-0.9855	-0.0536	-0.0841	-0.1373	1.6	0.1	0.6	-50	176	2030	
168	147	-0.9858	-0.0537	-0.0834	-0.1356	1.5	0.0	0.4	-44	177	2023	
169	147	-0.9857	-0.0538	-0.0835	-0.1356	1.7	0.3	0.3	-43	185	2017	
170	147	-0.9857	-0.0540	-0.0835	-0.1356	1.4	0.5	0.5	-42	190	2020	
171	147	-0.9857	-0.0540	-0.0836	-0.1357	1.2	0.7	0.6	-42	186	2022	
172	147	-0.9857	-0.0541	-0.0837	-0.1357	1.0	0.6	0.7	-39	187	2030	
173	147	-0.9857	-0.0542	-0.0837	-0.1357	0.4	0.9	0.2	-44	193	2020	
174	147	-0.9858	-0.0541	-0.0832	-0.1350	0.0	1.3	0.4	-40	188	2011	
175	147	-0.9858	-0.0541	-0.0833	-0.1351	-0.1	1.2	0.5	-40	191	2030	
176	147	-0.9858	-0.0541	-0.0833	-0.1351	-0.3	1.2	0.4	-40	185	2020	
177	147	-0.9858	-0.0541	-0.0834	-0.1352	-0.1	1.5	0.2	-41	187	2029	
178	147	-0.9858	-0.0540	-0.0836	-0.1352	-0.2	1.5	0.3	-42	181	2019	
179	147	-0.9858	-0.0540	-0.0837	-0.1353	-0.4	1.7	0.5	-40	183	2022	
180	147	-0.9859	-0.0539	-0.0832	-0.1350	-0.1	1.4	0.3	-37	174	2033	
181	147	-0.9858	-0.0539	-0.0832	-0.1350	0.1	1.0	0.6	-45	182	2026	
182	147	-0.9858	-0.0539	-0.0833	-0.1350	0.0	1.8	0.4	-36	183	2015	
183	147	-0.9858	-0.0538	-0.0835	-0.1351	-0.8	2.1	0.5	-38	174	2017	
184	147	-0.9858	-0.0537	-0.0837	-0.1351	-1.8	2.9	0.5	-35	185	2021	
185	147	-0.9858	-0.0535	-0.0839	-0.1352	-2.8	3.4	0.4	-41	189	2024	
186	147	-0.9857	-0.0531	-0.0835	-0.1363	-2.9	3.4	-0.1	-46	186	2035	
187	147	-0.9857	-0.0528	-0.0837	-0.1363	-3.1	2.9	0.3	-49	183	2029	
188	147	-0.9857	-0.0526	-0.0839	-0.1364	-3.1	2.8	0.0	-43	172	2019	
189	147	-0.9857	-0.0524	-0.0841	-0.1364	-2.8	2.8	0.1	-49	179	2022	
190	147	-0.9857	-0.0522	-0.0843	-0.1364	-2.0	2.0	0.0	-56	174	2052	
191	147	-0.9857	-0.0521	-0.0844	-0.1365	-0.6	1.4	0.3	-48	171	2029	
192	147	-0.9855	-0.0519	-0.0839	-0.1378	-0.3	1.2	0.6	-48	169	2018	
193	147	-0.9855	-0.0518	-0.0840	-0.1378	-0.1	1.0	0.4	-52	168	2033	
194	147	-0.9855	-0.0518	-0.0841	-0.1379	-0.2	1.0	0.7	-43	175	2031	
195	147	-0.9855	-0.0518	-0.0842	-0.1379	-0.8	1.6	0.5	-49	183	2031	
196	147	-0.9855	-0.0516	-0.0843	-0.1380	-1.4	1.8	0.3	-47	173	2018	
197	147	-0.9855	-0.0515	-0.0844	-0.1380	-1.4	1.5	0.3	-47	170	2036	
198	147	-0.9855	-0.0512	-0.0839	-0.1384	-2.0	2.1	0.3	-46	179	2012	
199	147	-0.9855	-0.0511	-0.0841	-0.1384	-2.6	2.6	0.1	-51	172	2028	
200	147	-0.9854	-0.0508	-0.0842	-0.1385	-2.5	2.8	0.3	-52	170	2021	
201	147	-0.9854	-0.0507	-0.0844	-0.1385	-2.0	2.7	0.4	-55	176	2022	
202	147	-0.9854	-0.0505	-0.0846	-0.1386	-1.8	2.9	0.3	-51	179	2024	
203	147	-0.9854	-0.0503	-0.0848	-0.1386	-2.1	3.0	0.1	-42	168	2034	
204	147	-0.9856	-0.0500	-0.0844	-0.1379	-2.6	3.4	0.3	-49	178	2020	
205	147	-0.9855	-0.0498	-0.0846	-0.1380	-3.1	3.9	0.1	-49	169	2024	
206	147	-0.9855	-0.0495	-0.0849	-0.1380	-3.9	4.3	0.0	-49	172	2036	
207	147	-0.9855	-0.0491	-0.0851	-0.1381	-4.5	4.6	0.2	-49	163	2022	
208	147	-0.9855	-0.0487	-0.0855	-0.1382	-5.4	5.1	0.1	-60	171	2035	
209	147	-0.9855	-0.0482	-0.0858	-0.1382	-6.2	5.3	0.0	-56	174	2030	
210	147	-0.9855	-0.0476	-0.0855	-0.1382	-6.8	5.4	0.0	-57	166	2032	
211	147	-0.9855	-0.0470	-0.0858	-0.1382	-7.7	5.8	-0.1	-61	170	2009	
212	147	-0.9855	-0.0464	-0.0862	-0.1383	-8.1	5.9	0.0	-56	160	2041	
213	147	-0.9855	-0.0457	-0.0866	-0.1384	-8.1	6.2	0.0	-61	147	2025	
214	147	-0.9855	-0.0451	-0.0869	-0.1385	-8.7	5.7	0.4	-69	155	2023	
215	147	-0.9855	-0.0444	-0.0873	-0.1386	-6.4	6.0	0.3	-79	148	2039	
216	147	-0.9857	-0.0439	-0.0870	-0.1373	-5.4	5.8	0.1	-75	134	2038	
217	147	-0.9857	-0.0435	-0.0874	-0.1374	-4.6	5.4	0.1	-73	141	2020	
218	147	-0.9857	-0.0431	-0.0877	-0.1375	-5.2	5.2	0.0	-75	147	2022	
219	147	-0.9856	-0.0426	-0.0880	-0.1375	-7.1	5.1	0.3	-80	155	2028	
220	147	-0.9856	-0.0419	-0.0883	-0.1376	-10.3	3.9	0.0	-83	158	2035	
221	147	-0.9856	-0.0411	-0.0885	-0.1377	-9.3	4.3	0.0	-85	137	2037	
222	147	-0.9857	-0.0403	-0.0881	-0.1375	-8.4	4.0	0.0	-79	127	2049	
223	147	-0.9857	-0.0397	-0.0882	-0.1375	-7.8	2.5	-0.1	-78	136	2037	
224	147	-0.9857	-0.0392	-0.0884	-0.1376	-6.1	2.7	0.2	-77	122	2036	
225	147	-0.9857	-0.0389	-0.0885	-0.1377	-3.6	1.6	0.5	-77	119	2034	
226	147	-0.9857	-0.0387	-0.0886	-0.1377	-1.0	1.9	0.3	-80	122	2024	
227	147	-0.9857	-0.0387	-0.0887	-0.1377	0.7	1.4	0.1	-75	122	2039	
228	147	-0.9858	-0.0388	-0.0882	-0.1374	2.8	1.1	0.7	-87	123	2035	
229	147	-0.9858	-0.0390	-0.0883	-0.1374	4.1	0.3	0.5	-84	126	2030	
230	147	-0.9857	-0.0393	-0.0883	-0.1374	4.3	-0.1	0.7	-86	126	2028	
231	147	-0.9857	-0.0396	-0.0884	-0.1375	3.9	-0.2	0.6	-84	135	2031	
232	147	-0.9857	-0.0399	-0.0884	-0.1375	2.6	0.0	0.4	-80	132	2030	
233	147	-0.9857	-0.0399	-0.0884	-0.1375	0.1	1.2	0.5	-72	136	2025	
234	147	-0.9857	-0.0397	-0.0880	-0.1381	-1.2	2.3	0.4	-62	139	2023	
235	147	-0.9857	-0.0396	-0.0881	-0.1381	-2.0	2.4	0.2	-74	128	2039	
236	147	-0.9857	-0.0394	-0.0883	-0.1381	-1.4	2.3	0.3	-74	133	2027	
237	147	-0.9857	-0.0393	-0.0884	-0.1382	-0.6	2.1	0.3	-68	127	2027	
238	147	-0.9857	-0.0393	-0.0885	-0.1382	0.7	1.2	-0.1	-80	132	2037	
239	147	-0.9856	-0.0394	-0.0886	-0.1382	1.7	0.5	0.1	-73	129	2021	
240	147	-0.9860	-0.0396	-0.0880	-0.1361	3.1	0.6	0.4	-78	138	2033	
241	147	-0.9859	-0.0399	-0.0880	-0.1361	3.4	0.4	0.8	-76	137	2022	
242	147	-0.9859	-0.0401	-0.0881	-0.1362	3.6	0.0	0.6	-89	142	2036	
243	147	-0.9859	-0.0404	-0.0881	-0.1362	3.7	-0.3	0.7	-77	132	2021	
244	147	-0.9859	-0.0407	-0.0881	-0.1362	3.2	0.1	0.6	-80	121	2051	
245	147	-0.9859	-0.0409	-0.0881	-0.1362	3.0	0.0	0.3	-79	135	2020	
246	147	-0.9860	-0.0410	-0.0875	-0.1356	3.3	-0.9	0.6	-78	137	2034	
247	147	-0.9860	-0.0414	-0.0874	-0.1356	4.5	-2.0	0.6	-86	126	2042	
248	147	-0.9860	-0.0418	-0.0873	-0.1356	6.0	-3.1	0.4	-75	132	2035	
249	147	-0.9860	-0.0423	-0.0871	-0.1356	7.2	-3.8	0.6	-87	126	2030	
250	147	-0.9860	-0.0429	-0.0869	-0.1356	8.3	-4.1	0.8	-72	135	2026	
251	147	-0.9860	-0.0436	-0.0866	-0.1356	9.5	-4.7	0.7	-73	138	2040	
252	147	-0.9859	-0.0442	-0.0859	-0.1368	10.4	-4.3	0.7	-63	152	2035	
253	147	-0.9858	-0.0450	-0.0857	-0.1368	10.6	-3.9	0.9	-67	147	2033	
254	147	-0.9858	-0.0458	-0.0855	-0.1367	10.7	-3.5	0.9	-57	159	2021	
255	147	-0.9858	-0.0466	-0.0854	-0.1367	11.0	-3.8	0.8	-62	165	2025	
0	147	-0.9858	-0.0475	-0.0852	-0.1367	11.5	-4.3	0.7	-61	177	2046	
1	147	-0.9857	-0.0484	-0.0850	-0.1367	11.5	-4.3	1.0	-53	164	2028	
2	147	-0.9857	-0.0494	-0.0841	-0.1371	10.0	-6.4	0.8	-63	258	1988	
3	147	-0.9857	-0.0504	-0.0839	-0.1371	13.6	-4.8	1.0	-53	203	2014	
4	147	-0.9857	-0.0512	-0.0837	-0.1371	10.3	-4.4	1.2	-55	183	2029	
5	147	-0.9857	-0.0520	-0.0835	-0.1371	9.6	-3.9	0.5	-58	181	2027	
6	147	-0.9856	-0.0527	-0.0833	-0.1370	9.6	-4.3	0.7	-51	177	2039	
7	147	-0.9856	-0.0535	-0.0830	-0.1370	10.5	-5.0	0.8	-49	175	2033	
8	147	-0.9855	-0.0542	-0.0822	-0.1383	12.3	-5.3	1.8	-61	185	2034	
9	147	-0.9854	-0.0553	-0.0819	-0.1384	15.5	-6.9	1.5	-51	165	2047	
10	147	-0.9854	-0.0566	-0.0816	-0.1384	17.6	-7.1	1.8	-52	195	2026	
11	147	-0.9853	-0.0580	-0.0812	-0.1384	19.0	-6.7	2.5	-44	192	2025	
12	147	-0.9852	-0.0595	-0.0810	-0.1385	20.3	-5.8	2.5	-36	199	2034	
13	147	-0.9852	-0.0609	-0.0808	-0.1385	19.1	-5.0	2.2	-26	214	2035	
14	147	-0.9851	-0.0622	-0.0801	-0.1387	16.0	-3.5	3.1	-29	236	2013	
15	147	-0.9850	-0.0632	-0.0801	-0.1390	12.1	0.7	6.8	-23	246	2004	
16	147	-0.9849	-0.0638	-0.0802	-0.1392	6.0	0.2	2.8	-14	256	1996	
17	147	-0.9849	-0.0640	-0.0803	-0.1393	1.2	1.7	1.5	-14	256	2008	
18	147	-0.9849	-0.0638	-0.0804	-0.1394	-3.1	2.9	0.7	-19	251	2007	
19	147	-0.9849	-0.0635	-0.0806	-0.1395	-5.7	3.9	0.3	-25	240	2018	
20	147	-0.9852	-0.0631	-0.0801	-0.1377	-6.4	3.7	0.3	-31	231	2036	
21	147	-0.9852	-0.0626	-0.0803	-0.1378	-5.4	3.3	0.2	-27	216	2051	
22	147	-0.9852	-0.0622	-0.0804	-0.1378	-3.7	1.0	0.0	-40	213	2033	
23	147	-0.9852	-0.0621	-0.0804	-0.1379	-1.5	0.2	0.6	-32	220	2023	
24	147	-0.9852	-0.0620	-0.0804	-0.1379	-0.8	-0.3	0.1	-36	219	2028	
25	147	-0.9852	-0.0620	-0.0803	-0.1379	-1.2	-0.1	0.8	-31	214	2020	
26	147	-0.9854	-0.0618	-0.0797	-0.1371	-1.9	0.7	0.4	-32	221	2031	
27	147	-0.9854	-0.0616	-0.0798	-0.1371	-3.9	2.0	0.3	-27	223	2014	
28	147	-0.9854	-0.0611	-0.0799	-0.1372	-6.5	3.1	0.0	-33	219	2031	
29	147	-0.9854	-0.0605	-0.0802	-0.1372	-10.1	5.3	-0.3	-24	229	1995	
30	147	-0.9854	-0.0595	-0.0805	-0.1373	-12.9	7.2	-0.9	-28	224	2015	
31	147	-0.9855	-0.0584	-0.0809	-0.1373	-15.3	7.9	-0.7	-45	214	2019	
32	147	-0.9856	-0.0572	-0.0807	-0.1368	-16.6	8.1	-1.0	-43	200	2041	
33	147	-0.9857	-0.0559	-0.0811	-0.1369	-16.7	7.1	-0.9	-50	197	2042	
34	147	-0.9857	-0.0544	-0.0813	-0.1370	-14.3	6.3	-0.1	-65	185	2057	
35	147	-0.9857	-0.0534	-0.0815	-0.1371	-13.8	4.3	-0.2	-55	176	2023	
36	147	-0.9857	-0.0526	-0.0817	-0.1372	-10.3	3.4	0.0	-48	172	2033	
37	147	-0.9858	-0.0520	-0.0818	-0.1372	-6.5	1.6	0.2	-53	158	2053	
38	147	-0.9859	-0.0515	-0.0812	-0.1367	-3.2	1.2	0.0	-48	163	2048	
39	147	-0.9859	-0.0514	-0.0813	-0.1368	-0.2	0.2	0.5	-61	160	2035	
40	147	-0.9859	-0.0515	-0.0812	-0.1368	2.1	-0.7	0.4	-52	166	2046	
41	147	-0.9859	-0.0518	-0.0812	-0.1368	4.2	-1.5	0.7	-54	167	2042	
42	147	-0.9859	-0.0522	-0.0811	-0.1368	4.9	-1.7	0.9	-49	170	2022	
43	147	-0.9859	-0.0525	-0.0810	-0.1368	4.8	-1.7	0.9	-43	180	2034	
44	147	-0.9862	-0.0529	-0.0802	-0.1346	4.3	-1.6	0.7	-46	179	2016	
45	147	-0.9862	-0.0533	-0.0802	-0.1346	4.2	-1.4	0.8	-48	176	2022	
46	147	-0.9862	-0.0541	-0.0797	-0.1347	11.0	-10.1	1.4	59	529	1962	
47	147	-0.9862	-0.0543	-0.0793	-0.1347	3.8	-2.6	1.3	13	32	2090	
48	147	-0.9862	-0.0548	-0.0790	-0.1347	7.0	-5.1	1.1	-28	160	2046	
49	147	-0.9862	-0.0551	-0.0788	-0.1347	2.0	-2.5	0.4	-7	236	2012	
50	147	-0.9859	-0.0550	-0.0784	-0.1372	-7.5	4.9	-0.6	14	269	1985	
51	147	-0.9859	-0.0555	-0.0782	-0.1372	6.0	-1.1	0.9	24	207	2066	
52	147	-0.9858	-0.0561	-0.0781	-0.1373	10.3	-5.0	2.9	-60	208	2038	
53	147	-0.9858	-0.0569	-0.0777	-0.1375	10.2	-6.0	3.2	-19	240	1994	
54	147	-0.9857	-0.0578	-0.0774	-0.1376	10.6	-6.2	3.4	-17	222	2016	
55	147	-0.9857	-0.0587	-0.0771	-0.1381	9.0	-3.1	12.2	-68	197	2057	
56	147	-0.9855	-0.0595	-0.0767	-0.1390	8.3	-1.4	21.2	-20	326	1926	
57	147	-0.9854	-0.0600	-0.0765	-0.1400	4.3	-1.4	9.2	50	256	2015	
58	147	-0.9853	-0.0600	-0.0766	-0.1404	-4.0	7.5	4.2	56	282	2024	
59	147	-0.9853	-0.0579	-0.0777	-0.1405	-54.7	25.6	-7.6	19	792	1569	
60	147	-0.9853	-0.0574	-0.0779	-0.1406	-5.5	0.3	1.3	-92	56	2167	
61	147	-0.9853	-0.0566	-0.0782	-0.1408	-42.6	21.4	-2.5	493	919	1433	
62	147	-0.9853	-0.0555	-0.0789	-0.1408	2.0	5.2	-1.6	38	-74	2078	
63	147	-0.9853	-0.0549	-0.0792	-0.1410	-10.9	4.8	-0.2	-2	498	1882	
64	147	-0.9853	-0.0549	-0.0793	-0.1411	0.1	-3.5	3.1	-52	260	1946	
65	147	-0.9853	-0.0548	-0.0795	-0.1411	4.3	2.8	0.2	99	83	2068	
66	147	-0.9853	-0.0545	-0.0797	-0.1411	-0.9	5.7	-1.5	346	-13	2096	
67	147	-0.9853	-0.0541	-0.0798	-0.1412	-6.5	-0.4	0.5	-30	107	2046	
68	147	-0.9854	-0.0533	-0.0791	-0.1411	-8.0	0.7	0.2	-58	163	2083	
69	147	-0.9854	-0.0523	-0.0793	-0.1411	-14.6	-0.3	0.1	-73	191	2081	
70	147	-0.9854	-0.0511	-0.0797	-0.1411	-19.5	11.8	-2.0	-60	171	1977	
71	147	-0.9855	-0.0500	-0.0798	-0.1412	-16.4	2.9	-0.1	-90	271	2011	
72	147	-0.9855	-0.0496	-0.0798	-0.1413	-8.1	1.7	0.4	18	132	2106	
73	147	-0.9855	-0.0494	-0.0798	-0.1414	0.2	-1.7	1.0	-59	211	2046	
74	147	-0.9854	-0.0498	-0.0790	-0.1419	9.5	-6.7	1.8	-71	119	2069	
75	147	-0.9854	-0.0502	-0.0787	-0.1419	2.3	-1.4	0.9	-4	153	2041	
76	147	-0.9854	-0.0502	-0.0786	-0.1419	-0.2	-0.3	0.5	-36	161	2031	
77	147	-0.9854	-0.0501	-0.0786	-0.1420	0.0	1.5	0.8	-37	149	2069	
78	147	-0.9854	-0.0499	-0.0786	-0.1421	-2.3	0.1	1.0	-40	181	2010	
79	147	-0.9855	-0.0497	-0.0785	-0.1421	-4.1	-0.3	0.3	-51	180	1994	
80	147	-0.9855	-0.0493	-0.0781	-0.1421	-4.7	3.4	0.5	-7	126	2087	
81	147	-0.9855	-0.0488	-0.0782	-0.1422	-5.9	3.4	0.4	-40	171	2014	
82	147	-0.9855	-0.0484	-0.0784	-0.1422	-5.4	1.9	0.2	-78	149	1984	
83	147	-0.9855	-0.0480	-0.0785	-0.1423	-4.6	1.1	0.0	-46	155	2035	
84	147	-0.9855	-0.0477	-0.0785	-0.1423	-4.1	0.3	0.4	-58	151	2012	
85	147	-0.9855	-0.0474	-0.0786	-0.1424	-5.9	1.8	0.3	-43	189	1972	
86	147	-0.9856	-0.0468	-0.0782	-0.1425	-6.9	3.0	0.3	-35	151	2049	
87	147	-0.9856	-0.0464	-0.0784	-0.1426	-6.8	4.7	0.3	-30	159	2048	
88	147	-0.9856	-0.0444	-0.0789	-0.1427	-27.8	20.6	-0.1	171	91	2420	
89	147	-0.9856	-0.0439	-0.0790	-0.1428	-2.9	1.0	0.6	-64	154	1965	
90	147	-0.9856	-0.0430	-0.0793	-0.1429	-12.7	5.6	0.1	-129	81	1863	
91	147	-0.9856	-0.0420	-0.0795	-0.1430	-13.9	4.4	0.0	47	162	2080	
92	147	-0.9857	-0.0412	-0.0789	-0.1431	-10.0	2.6	0.3	-27	115	2015	
93	147	-0.9857	-0.0406	-0.0791	-0.1432	-4.7	2.1	0.1	-138	-20	2007	
94	147	-0.9857	-0.0396	-0.0794	-0.1433	-12.9	7.9	-0.4	-28	93	2086	
95	147	-0.9857	-0.0387	-0.0798	-0.1433	-10.0	7.7	-0.4	-68	129	2046	
96	147	-0.9857	-0.0377	-0.0802	-0.1433	-13.1	8.2	-1.6	-43	143	2042	
97	147	-0.9858	-0.0351	-0.0848	-0.1404	-5.3	90.7	-57.3	-82	-966	570	
98	147	-0.9858	-0.0336	-0.0852	-0.1407	-20.2	12.3	-0.8	-55	59	2070	
99	147	-0.9857	-0.0318	-0.0864	-0.1409	-23.7	18.5	-0.3	-80	135	2003	
100	147	-0.9857	-0.0298	-0.0876	-0.1411	-25.0	21.5	-0.3	-77	67	2045	
101	147	-0.9856	-0.0286	-0.0885	-0.1412	-10.3	12.8	0.9	-141	92	2098	
102	147	-0.9855	-0.0280	-0.0891	-0.1413	-7.5	7.8	0.4	-85	108	2075	
103	147	-0.9855	-0.0273	-0.0893	-0.1414	-8.4	1.6	0.0	-116	79	2039	
104	147	-0.9858	-0.0267	-0.0885	-0.1397	-9.6	-3.9	-0.7	-138	86	2033	
105	147	-0.9859	-0.0261	-0.0879	-0.1397	-9.3	-8.7	-1.0	-105	93	2022	
106	147	-0.9860	-0.0256	-0.0871	-0.1397	-6.8	-11.3	-1.0	-114	63	2009	
107	147	-0.9861	-0.0251	-0.0862	-0.1396	-9.3	-11.0	-1.5	-42	117	2032	
108	147	-0.9862	-0.0244	-0.0853	-0.1396	-14.3	-8.4	-1.4	-61	119	2002	
109	147	-0.9863	-0.0231	-0.0848	-0.1396	-16.4	-3.1	-1.4	-43	33	2047	
110	147	-0.9862	-0.0220	-0.0840	-0.1408	-11.8	1.0	-1.1	-64	66	2055	
111	147	-0.9862	-0.0210	-0.0840	-0.1408	-15.7	1.8	-1.5	-73	83	2004	
112	147	-0.9862	-0.0201	-0.0842	-0.1408	-10.2	5.1	-1.1	-87	39	2044	
113	147	-0.9862	-0.0195	-0.0844	-0.1408	-6.2	4.4	-1.4	-103	65	2026	
114	147	-0.9862	-0.0192	-0.0847	-0.1408	-2.5	4.0	-0.4	-91	41	2046	
115	147	-0.9862	-0.0191	-0.0850	-0.1407	0.7	3.1	-0.1	-92	42	2052	
116	147	-0.9861	-0.0190	-0.0846	-0.1415	1.7	0.0	0.1	-101	51	2047	
117	147	-0.9861	-0.0192	-0.0845	-0.1415	1.1	-2.4	0.1	-100	45	2032	
118	147	-0.9861	-0.0192	-0.0844	-0.1415	0.4	-2.8	0.3	-83	63	2039	
119	147	-0.9861	-0.0193	-0.0842	-0.1415	0.6	-4.4	0.3	-213	17	1992	
120	147	-0.9861	-0.0193	-0.0842	-0.1416	1.4	-4.3	0.5	-168	22	2043	
121	147	-0.9861	-0.0194	-0.0840	-0.1417	0.6	-3.2	1.0	-101	54	2036	
122	147	-0.9862	-0.0194	-0.0833	-0.1418	1.0	-2.0	1.3	-90	60	2030	
123	147	-0.9861	-0.0193	-0.0833	-0.1419	-6.2	5.5	1.7	-34	104	1976	
124	147	-0.9861	-0.0184	-0.0840	-0.1422	-10.4	8.4	1.8	-122	41	2069	
125	147	-0.9860	-0.0177	-0.0846	-0.1424	-6.2	7.8	1.1	-184	-33	2004	
126	147	-0.9860	-0.0174	-0.0849	-0.1425	-3.1	7.5	1.1	-81	4	2040	
127	147	-0.9859	-0.0173	-0.0852	-0.1426	-3.1	5.6	0.9	-21	92	2058	
128	147	-0.9860	-0.0171	-0.0849	-0.1427	-2.3	4.6	1.0	-100	78	2022	
129	147	-0.9859	-0.0169	-0.0855	-0.1428	-2.0	7.6	0.7	-117	70	2017	
130	147	-0.9858	-0.0163	-0.0864	-0.1429	-1.4	8.5	0.7	-382	-246	1892	
131	147	-0.9857	-0.0159	-0.0871	-0.1430	-0.7	6.0	-0.4	-245	38	2030	
132	147	-0.9857	-0.0154	-0.0878	-0.1431	-8.4	14.1	0.3	-124	-161	1970	
133	147	-0.9856	-0.0151	-0.0884	-0.1431	2.3	5.0	1.0	-196	-185	1965	
134	147	-0.9857	-0.0144	-0.0885	-0.1426	-1.4	9.6	1.0	-153	-82	1970	
135	147	-0.9856	-0.0140	-0.0892	-0.1426	-3.7	9.9	0.6	-108	14	2048	
136	147	-0.9856	-0.0137	-0.0899	-0.1427	-4.2	12.0	0.6	-95	-23	2080	
137	147	-0.9855	-0.0136	-0.0905	-0.1428	-6.5	9.2	0.4	-84	133	1902	
138	147	-0.9855	-0.0135	-0.0908	-0.1428	7.1	-0.6	0.4	-162	-51	2108	
139	147	-0.9855	-0.0142	-0.0907	-0.1428	7.6	-1.8	0.4	-87	88	2009	
140	147	-0.9855	-0.0146	-0.0901	-0.1431	3.3	-0.2	0.5	-117	59	2008	
141	147	-0.9855	-0.0146	-0.0902	-0.1431	-1.3	1.5	0.7	-105	70	2013	
142	147	-0.9854	-0.0144	-0.0903	-0.1432	-4.3	2.3	1.1	-112	57	2014	
143	147	-0.9854	-0.0139	-0.0904	-0.1433	-6.5	2.4	1.0	-108	58	2029	
144	147	-0.9854	-0.0134	-0.0905	-0.1435	-7.3	2.0	0.9	-113	41	2032	
145	147	-0.9854	-0.0130	-0.0906	-0.1436	-4.3	3.5	0.3	-125	-6	2035	
146	147	-0.9854	-0.0126	-0.0902	-0.1437	-1.4	1.3	0.4	-108	15	2039	
147	147	-0.9854	-0.0126	-0.0902	-0.1437	-0.2	-0.8	0.4	-85	25	2062	
148	147	-0.9854	-0.0127	-0.0901	-0.1438	1.6	-1.6	0.6	-126	27	2023	
149	147	-0.9854	-0.0128	-0.0901	-0.1438	1.6	-0.1	0.4	-113	27	2030	
150	147	-0.9854	-0.0129	-0.0902	-0.1438	2.8	0.8	0.7	-103	32	2037	
151	147	-0.9854	-0.0132	-0.0903	-0.1439	2.8	1.4	0.7	-118	29	2029	
152	147	-0.9853	-0.0132	-0.0899	-0.1446	2.0	2.2	0.4	-118	34	2031	
153	147	-0.9853	-0.0133	-0.0902	-0.1447	2.5	2.0	0.3	-129	33	2021	
154	147	-0.9852	-0.0135	-0.0903	-0.1447	3.2	1.4	0.4	-129	37	2050	
155	147	-0.9852	-0.0137	-0.0905	-0.1447	4.6	3.1	0.7	-107	26	2019	
156	147	-0.9852	-0.0140	-0.0909	-0.1447	5.4	4.2	0.9	-103	28	2047	
157	147	-0.9851	-0.0145	-0.0913	-0.1447	7.0	4.3	0.7	-104	29	2031	
158	147	-0.9850	-0.0148	-0.0911	-0.1457	8.7	4.2	0.5	-127	25	2038	
159	147	-0.9850	-0.0156	-0.0913	-0.1457	10.7	1.8	0.4	-121	41	2050	
160	147	-0.9850	-0.0164	-0.0915	-0.1456	12.1	0.6	0.0	-101	37	2055	
161	147	-0.9849	-0.0172	-0.0916	-0.1455	11.3	1.0	0.0	-106	76	2038	
162	147	-0.9849	-0.0181	-0.0919	-0.1455	13.0	1.8	-0.1	-108	48	2038	
163	147	-0.9849	-0.0190	-0.0923	-0.1454	12.6	3.5	0.3	-92	69	2028	
164	147	-0.9850	-0.0198	-0.0920	-0.1446	11.3	3.7	0.8	-118	82	2025	
165	147	-0.9850	-0.0205	-0.0923	-0.1446	8.9	0.7	0.1	-134	91	2018	
166	147	-0.9849	-0.0211	-0.0923	-0.1445	7.9	-0.6	0.2	-129	70	2038	
167	147	-0.9849	-0.0217	-0.0924	-0.1445	6.7	-0.8	0.4	-134	97	2024	
168	147	-0.9849	-0.0221	-0.0924	-0.1445	6.1	-0.7	0.9	-99	53	2036	
169	147	-0.9849	-0.0224	-0.0924	-0.1446	2.5	0.0	0.0	-118	88	2008	
170	147	-0.9848	-0.0225	-0.0919	-0.1455	3.2	-0.1	0.8	-109	61	2040	
171	147	-0.9848	-0.0226	-0.0920	-0.1456	1.7	0.5	0.9	-114	83	2023	
172	147	-0.9848	-0.0228	-0.0920	-0.1456	1.5	-0.1	0.9	-119	85	2040	
173	147	-0.9848	-0.0229	-0.0919	-0.1457	1.6	-2.5	0.5	-134	68	2032	
174	147	-0.9848	-0.0233	-0.0918	-0.1457	4.6	-2.9	0.7	-116	77	2036	
175	147	-0.9848	-0.0237	-0.0915	-0.1457	6.2	-5.0	0.7	-131	57	2047	
176	147	-0.9848	-0.0242	-0.0907	-0.1457	9.1	-5.0	0.8	-100	85	2053	
177	147	-0.9849	-0.0250	-0.0904	-0.1457	9.6	-4.6	0.3	-106	92	2027	
178	147	-0.9849	-0.0257	-0.0902	-0.1457	10.7	-2.5	1.0	-91	88	2031	
179	147	-0.9848	-0.0263	-0.0903	-0.1457	7.5	0.3	0.8	-87	66	2023	
180	147	-0.9848	-0.0266	-0.0905	-0.1457	1.5	4.0	0.4	-71	109	2008	
181	147	-0.9848	-0.0264	-0.0909	-0.1457	-4.6	6.1	0.1	-95	147	2009	
182	147	-0.9846	-0.0259	-0.0908	-0.1469	-5.6	7.4	0.0	-100	93	2029	
183	147	-0.9846	-0.0254	-0.0912	-0.1470	-5.6	6.6	0.3	-113	83	2032	
184	147	-0.9845	-0.0250	-0.0916	-0.1471	-3.6	4.8	0.1	-122	95	2039	
185	147	-0.9845	-0.0249	-0.0918	-0.1472	0.0	2.9	1.0	-112	76	2037	
186	147	-0.9845	-0.0249	-0.0920	-0.1472	1.7	2.5	0.9	-112	78	2036	
187	147	-0.9845	-0.0250	-0.0922	-0.1473	1.6	1.8	0.6	-110	83	2031	
188	147	-0.9846	-0.0251	-0.0917	-0.1469	0.9	2.1	0.5	-108	106	2031	
189	147	-0.9845	-0.0251	-0.0920	-0.1469	-0.4	3.1	0.2	-112	115	2030	
190	147	-0.9845	-0.0249	-0.0923	-0.1470	-2.3	5.3	0.6	-102	91	2030	
191	147	-0.9844	-0.0246	-0.0927	-0.1471	-5.4	7.3	0.3	-103	101	2009	
192	147	-0.9844	-0.0239	-0.0932	-0.1472	-8.7	9.8	0.3	-102	94	2015	
193	147	-0.9843	-0.0231	-0.0939	-0.1473	-11.1	12.1	0.4	-102	90	2029	
194	147	-0.9841	-0.0219	-0.0941	-0.1487	-12.9	12.1	0.0	-131	81	2021	
195	147	-0.9841	-0.0209	-0.0949	-0.1488	-12.8	11.0	0.2	-128	59	2027	
196	147	-0.9840	-0.0200	-0.0955	-0.1489	-10.3	10.4	0.3	-129	56	2032	
197	147	-0.9839	-0.0191	-0.0960	-0.1490	-9.2	9.8	0.2	-142	87	2031	
198	147	-0.9839	-0.0184	-0.0965	-0.1491	-9.0	6.8	0.0	-159	89	2027	
199	147	-0.9839	-0.0179	-0.0969	-0.1492	-5.1	4.9	0.9	-140	36	2031	
200	147	-0.9839	-0.0175	-0.0966	-0.1495	-2.6	4.0	1.0	-136	57	2044	
201	147	-0.9838	-0.0173	-0.0967	-0.1496	-2.2	2.2	0.6	-154	71	2027	
202	147	-0.9838	-0.0171	-0.0969	-0.1496	-2.0	2.3	0.4	-130	75	2018	
203	147	-0.9838	-0.0169	-0.0970	-0.1497	-3.1	3.6	0.7	-126	70	2013	
204	147	-0.9838	-0.0165	-0.0974	-0.1498	-4.2	5.8	0.7	-130	72	2034	
205	147	-0.9837	-0.0161	-0.0978	-0.1499	-5.9	7.9	0.6	-131	81	2022	
206	147	-0.9837	-0.0155	-0.0978	-0.1502	-7.2	9.8	0.6	-139	72	2038	
207	147	-0.9836	-0.0149	-0.0985	-0.1503	-6.5	10.2	0.6	-144	52	2036	
208	147	-0.9835	-0.0147	-0.0993	-0.1503	-1.0	9.8	0.3	-191	80	1999	
209	147	-0.9835	-0.0143	-0.0998	-0.1504	-7.3	5.6	0.1	-204	102	1941	
210	147	-0.9834	-0.0139	-0.1004	-0.1504	-1.7	7.8	0.5	-159	20	2019	
211	147	-0.9833	-0.0136	-0.1010	-0.1505	-2.8	6.9	1.2	-194	65	2015	
212	147	-0.9832	-0.0133	-0.1009	-0.1511	-1.5	7.0	0.6	-144	8	2050	
213	147	-0.9832	-0.0131	-0.1010	-0.1512	-2.7	0.9	1.0	-175	30	2013	
214	147	-0.9832	-0.0129	-0.1010	-0.1513	-1.8	0.1	0.9	-127	35	2048	
215	147	-0.9832	-0.0129	-0.1009	-0.1513	-0.3	-0.4	0.2	-104	48	2074	
216	147	-0.9832	-0.0129	-0.1007	-0.1514	-0.1	-2.1	0.6	-143	48	2030	
217	147	-0.9832	-0.0130	-0.1006	-0.1514	1.2	-1.8	0.6	-163	34	2049	
218	147	-0.9832	-0.0131	-0.1000	-0.1520	3.4	-2.6	-0.1	-146	56	2027	
219	147	-0.9832	-0.0134	-0.0999	-0.1520	3.1	-3.1	-0.4	-157	64	2011	
220	147	-0.9832	-0.0136	-0.0996	-0.1519	1.8	-3.8	-0.6	-156	44	2016	
221	147	-0.9833	-0.0137	-0.0994	-0.1519	0.7	-2.1	-0.5	-123	89	2036	
222	147	-0.9833	-0.0138	-0.0992	-0.1518	-0.1	-1.0	-0.6	-116	72	2031	
223	147	-0.9833	-0.0138	-0.0992	-0.1518	0.4	-1.2	-0.3	-141	64	2032	
224	147	-0.9833	-0.0137	-0.0986	-0.1520	0.1	0.0	-0.2	-171	2	2032	
225	147	-0.9833	-0.0137	-0.0987	-0.1520	0.1	2.0	-0.1	-141	42	2054	
226	147	-0.9833	-0.0138	-0.0988	-0.1520	1.6	1.1	0.0	-154	31	2051	
227	147	-0.9833	-0.0139	-0.0989	-0.1520	2.4	0.9	-0.1	-144	43	2040	
228	147	-0.9833	-0.0142	-0.0988	-0.1520	5.1	-1.2	0.2	-143	27	2033	
229	147	-0.9833	-0.0146	-0.0988	-0.1519	5.1	-2.8	0.0	-144	47	2039	
230	147	-0.9832	-0.0151	-0.0981	-0.1528	9.1	-3.4	0.0	-162	52	2025	
231	147	-0.9833	-0.0157	-0.0978	-0.1528	7.8	-4.1	0.4	-147	66	2028	
232	147	-0.9833	-0.0161	-0.0976	-0.1528	5.3	-3.1	0.0	-127	46	2046	
233	147	-0.9833	-0.0163	-0.0976	-0.1527	-0.4	1.6	0.1	-93	123	2035	
234	147	-0.9832	-0.0153	-0.0989	-0.1529	-23.7	30.9	0.2	240	373	2102	
235	147	-0.9831	-0.0144	-0.0999	-0.1530	-2.0	13.9	-0.9	-306	-124	2027	
236	147	-0.9833	-0.0139	-0.1001	-0.1510	-0.7	6.5	0.1	-137	87	2022	
237	147	-0.9833	-0.0136	-0.1005	-0.1510	-5.3	7.4	0.0	-138	96	2045	
238	147	-0.9832	-0.0132	-0.1009	-0.1511	-5.4	6.1	-0.7	-150	54	2017	
239	147	-0.9832	-0.0128	-0.1012	-0.1510	-2.6	2.3	-1.0	-178	37	2045	
240	147	-0.9832	-0.0128	-0.1012	-0.1510	-0.6	0.1	-0.4	-157	30	2029	
241	147	-0.9832	-0.0128	-0.1012	-0.1509	0.4	-0.8	-0.1	-136	21	2025	
242	147	-0.9833	-0.0127	-0.1005	-0.1512	1.5	-1.6	0.0	-145	43	2031	
243	147	-0.9833	-0.0129	-0.1003	-0.1512	3.1	-1.2	-0.4	-155	178	2040	
244	147	-0.9833	-0.0131	-0.1002	-0.1512	2.0	-2.2	0.0	-153	50	2018	
245	147	-0.9833	-0.0132	-0.1001	-0.1512	1.1	-0.9	0.1	-145	51	2034	
246	147	-0.9833	-0.0132	-0.1000	-0.1512	0.0	0.0	0.0	-143	63	2035	
247	147	-0.9833	-0.0132	-0.1001	-0.1512	-1.0	1.3	0.3	-140	51	2028	
248	147	-0.9834	-0.0130	-0.0997	-0.1511	-2.5	3.4	0.3	-147	61	2027	
249	147	-0.9833	-0.0128	-0.0999	-0.1512	-2.2	4.5	0.1	-138	56	2029	
250	147	-0.9833	-0.0125	-0.1003	-0.1512	-2.1	5.2	0.0	-153	49	2039	
251	147	-0.9833	-0.0124	-0.1006	-0.1512	-1.5	3.9	0.1	-152	42	2049	
252	147	-0.9832	-0.0123	-0.1007	-0.1512	-0.3	0.7	-0.2	-168	53	2026	
253	147	-0.9833	-0.0123	-0.1007	-0.1512	-0.5	-1.0	-0.3	-167	52	2032	
254	147	-0.9833	-0.0122	-0.0999	-0.1513	-0.8	-3.4	-0.5	-159	57	2023	
255	147	-0.9834	-0.0122	-0.0996	-0.1513	-0.4	-5.1	-0.7	-158	49	2046	
0	147	-0.9834	-0.0122	-0.0992	-0.1512	-0.1	-4.8	0.0	-144	43	2025	
1	147	-0.9834	-0.0121	-0.0989	-0.1513	-6.3	-1.7	0.7	-79	219	1966	
2	147	-0.9835	-0.0120	-0.0988	-0.1512	-2.1	-2.2	0.0	-179	55	2023	
3	147	-0.9835	-0.0118	-0.0987	-0.1512	-2.0	0.4	-0.3	-134	46	2032	
4	147	-0.9834	-0.0115	-0.0981	-0.1519	-2.4	1.5	0.0	-129	64	2032	
5	147	-0.9834	-0.0113	-0.0982	-0.1520	-2.0	1.5	0.1	-154	85	2035	
6	147	-0.9834	-0.0112	-0.0984	-0.1519	-1.0	2.8	-0.4	-137	37	2041	
7	147	-0.9834	-0.0111	-0.0986	-0.1519	-0.2	2.4	-0.7	-148	39	2039	
8	147	-0.9834	-0.0111	-0.0987	-0.1519	0.9	1.5	-0.6	-159	32	2027	
9	147	-0.9834	-0.0113	-0.0988	-0.1518	2.1	0.8	-0.4	-150	36	2026	
10	147	-0.9834	-0.0114	-0.0983	-0.1519	2.9	-0.6	-0.4	-167	34	2017	
11	147	-0.9834	-0.0117	-0.0982	-0.1519	4.3	-1.6	-0.2	-165	35	2027	
12	147	-0.9834	-0.0119	-0.0981	-0.1518	-0.1	-0.9	-0.8	-150	-51	2025	
13	147	-0.9835	-0.0121	-0.0980	-0.1518	4.5	-1.5	0.0	-94	186	2059	
14	147	-0.9835	-0.0125	-0.0979	-0.1518	4.5	-1.1	0.3	-133	45	2030	
15	147	-0.9835	-0.0128	-0.0979	-0.1517	3.2	-0.8	0.2	-143	42	2030	
16	147	-0.9836	-0.0129	-0.0973	-0.1511	2.4	-0.4	0.6	-134	55	2019	
17	147	-0.9836	-0.0131	-0.0973	-0.1511	2.1	-0.4	0.1	-147	49	2032	
18	147	-0.9836	-0.0132	-0.0973	-0.1511	2.0	-0.4	0.7	-141	38	2024	
19	147	-0.9836	-0.0135	-0.0972	-0.1511	3.5	-2.8	0.3	-158	31	2034	
20	147	-0.9836	-0.0139	-0.0970	-0.1511	5.1	-4.3	0.2	-149	35	2036	
21	147	-0.9837	-0.0143	-0.0966	-0.1511	5.7	-6.0	0.7	-130	49	2023	
22	147	-0.9839	-0.0148	-0.0956	-0.1501	6.6	-6.2	0.4	-147	37	2031	
23	147	-0.9839	-0.0154	-0.0954	-0.1501	5.7	-2.5	1.0	-117	55	2021	
24	147	-0.9839	-0.0155	-0.0957	-0.1502	0.5	10.9	2.5	-30	95	2052	
25	147	-0.9837	-0.0149	-0.0974	-0.1505	-0.3	2.6	1.1	-537	34	1833	
26	147	-0.9836	-0.0144	-0.0980	-0.1506	-0.5	3.7	0.5	-240	-28	2068	
27	147	-0.9836	-0.0144	-0.0981	-0.1507	-2.3	3.2	1.2	-125	100	2030	
28	147	-0.9835	-0.0141	-0.0978	-0.1515	-4.3	4.9	1.0	-106	59	2053	
29	147	-0.9834	-0.0136	-0.0984	-0.1516	-5.5	10.3	1.2	-135	72	2010	
30	147	-0.9834	-0.0132	-0.0988	-0.1517	-4.6	6.4	1.0	-150	22	2054	
31	147	-0.9833	-0.0130	-0.0991	-0.1518	-2.2	2.5	0.4	-179	39	2018	
32	147	-0.9833	-0.0128	-0.0992	-0.1518	-1.0	1.4	0.6	-164	37	2026	
33	147	-0.9833	-0.0129	-0.0992	-0.1519	0.7	0.3	0.2	-164	46	2022	
34	147	-0.9832	-0.0128	-0.0988	-0.1525	-0.6	2.1	0.6	-137	57	2030	
35	147	-0.9832	-0.0127	-0.0990	-0.1526	-0.6	0.7	0.3	-166	42	2030	
36	147	-0.9832	-0.0126	-0.0991	-0.1526	-1.0	2.1	0.4	-142	36	2027	
37	147	-0.9832	-0.0126	-0.0991	-0.1526	-0.4	-0.1	0.1	-144	31	2033	
38	147	-0.9832	-0.0125	-0.0990	-0.1526	-0.6	-0.3	0.0	-141	52	2044	
39	147	-0.9832	-0.0125	-0.0990	-0.1526	-1.2	-0.1	0.1	-140	43	2029	
40	147	-0.9833	-0.0123	-0.0984	-0.1527	-1.2	-0.6	0.2	-142	34	2035	
41	147	-0.9833	-0.0122	-0.0983	-0.1527	-0.6	-1.2	0.3	-155	41	2043	
42	147	-0.9833	-0.0122	-0.0982	-0.1527	0.0	-2.0	0.1	-151	44	2035	
43	147	-0.9833	-0.0123	-0.0980	-0.1528	0.0	-2.5	0.1	-149	37	2032	
44	147	-0.9833	-0.0122	-0.0978	-0.1527	0.0	-3.6	-0.1	-164	-62	2016	
45	147	-0.9833	-0.0122	-0.0977	-0.1528	-0.4	-1.8	0.2	-134	48	2027	
46	147	-0.9835	-0.0119	-0.0971	-0.1519	-4.8	1.5	0.1	-134	58	1998	
47	147	-0.9835	-0.0115	-0.0972	-0.1520	-4.9	1.3	-0.1	-141	38	2034	
48	147	-0.9835	-0.0110	-0.0973	-0.1520	-7.0	2.5	-0.4	-140	41	2020	
49	147	-0.9835	-0.0105	-0.0974	-0.1520	-5.4	2.0	-0.6	-142	21	2032	
50	147	-0.9835	-0.0102	-0.0974	-0.1519	-4.3	0.8	-1.0	-162	16	2036	
51	147	-0.9835	-0.0099	-0.0974	-0.1519	-4.5	-0.3	-1.2	-150	32	2034	
52	147	-0.9836	-0.0094	-0.0967	-0.1519	-5.1	-1.5	-1.7	-147	25	2026	
53	147	-0.9836	-0.0090	-0.0966	-0.1517	-5.7	0.3	-6.5	-130	60	2021	
54	147	-0.9841	-0.0087	-0.0990	-0.1470	-1.9	-3.1	-6.3	-460	-472	1797	
55	147	-0.9843	-0.0081	-0.0993	-0.1459	-1.7	11.2	-23.0	-139	18	2089	
56	147	-0.9844	-0.0076	-0.0998	-0.1446	-5.3	6.0	-19.6	-132	90	2020	
57	147	-0.9846	-0.0065	-0.1001	-0.1426	-10.2	10.9	-43.4	120	97	2352	
58	147	-0.9849	-0.0056	-0.1003	-0.1408	-9.3	5.0	-23.7	-167	3	2034	
59	147	-0.9851	-0.0047	-0.1005	-0.1392	-8.8	2.4	-30.9	-145	234	2018	
60	147	-0.9854	-0.0038	-0.1006	-0.1368	-10.0	1.1	-31.8	-193	51	1970	
61	147	-0.9858	-0.0029	-0.1005	-0.1342	-6.4	-1.7	-40.5	-170	136	2061	
62	147	-0.9863	-0.0023	-0.1003	-0.1312	-5.9	-2.4	-40.5	-164	90	2034	
63	147	-0.9866	-0.0014	-0.1000	-0.1288	-12.1	-2.9	-28.0	-168	-148	2006	
64	147	-0.9872	-0.0005	-0.0992	-0.1251	-7.2	-1.2	-24.9	-145	28	2080	
65	147	-0.9873	0.0004	-0.0991	-0.1238	-12.0	-0.7	-15.6	-143	16	2012	
66	147	-0.9874	0.0013	-0.0990	-0.1232	-11.3	0.7	-6.8	-190	133	2073	
67	147	-0.9874	0.0021	-0.0989	-0.1231	-12.5	0.6	-1.0	-197	272	2002	
68	147	-0.9874	0.0027	-0.0990	-0.1236	-10.1	2.5	8.9	-164	59	2003	
69	147	-0.9872	0.0034	-0.0991	-0.1244	-11.1	2.6	12.4	-193	172	1989	
70	147	-0.9871	0.0039	-0.0989	-0.1257	-17.0	4.8	13.7	-142	125	2033	
71	147	-0.9869	0.0047	-0.0992	-0.1271	-13.5	6.2	18.9	-166	-20	2025	
72	147	-0.9867	0.0052	-0.0994	-0.1286	-3.8	4.2	22.2	-240	180	2078	
73	147	-0.9864	0.0061	-0.0998	-0.1303	-17.3	4.6	18.7	-71	-452	2094	
74	147	-0.9862	0.0066	-0.0998	-0.1318	-9.9	1.4	21.0	-176	-17	2034	
75	147	-0.9859	0.0069	-0.0997	-0.1337	-7.1	1.2	30.7	-210	107	2032	
76	147	-0.9855	0.0066	-0.0996	-0.1373	5.6	4.7	47.9	-212	75	2011	
77	147	-0.9850	0.0065	-0.0998	-0.1405	-11.1	2.3	42.1	-170	99	1853	
78	147	-0.9845	0.0069	-0.1001	-0.1436	-5.2	5.4	48.3	-267	144	1959	
79	147	-0.9840	0.0074	-0.1004	-0.1469	-14.3	3.5	43.5	-46	-168	2040	
80	147	-0.9835	0.0077	-0.1006	-0.1500	-2.9	3.3	43.2	-213	59	2044	
81	147	-0.9828	0.0073	-0.1011	-0.1541	0.9	10.3	64.4	-129	-66	2028	
82	147	-0.9819	0.0075	-0.1011	-0.1598	-4.2	7.6	50.9	-128	33	2012	
83	147	-0.9812	0.0077	-0.1017	-0.1639	-10.3	10.0	53.7	-125	-138	2061	
84	147	-0.9805	0.0084	-0.1021	-0.1674	-7.5	7.8	44.5	-134	-34	2128	
85	147	-0.9799	0.0080	-0.1027	-0.1707	7.3	9.3	50.0	-215	-104	2061	
86	147	-0.9794	0.0078	-0.1032	-0.1732	4.0	9.6	32.9	-244	198	2025	
87	147	-0.9791	0.0081	-0.1037	-0.1746	-9.0	4.2	18.1	-200	-32	1986	
88	147	-0.9787	0.0082	-0.1035	-0.1772	6.0	5.6	8.6	-175	286	1977	
89	147	-0.9788	0.0076	-0.1045	-0.1759	20.6	15.5	-31.5	-219	515	2054	
90	147	-0.9800	0.0065	-0.1050	-0.1689	30.1	-1.6	-191.9	646	1356	2031	
91	147	-0.9799	0.0052	-0.1041	-0.1698	-21.8	4.2	31.0	134	-334	1827	
92	147	-0.9800	0.0060	-0.1046	-0.1689	8.7	7.9	-54.1	-128	611	2150	
93	147	-0.9805	0.0041	-0.1041	-0.1665	14.3	-10.9	77.8	-308	-625	1676	
94	147	-0.9802	0.0056	-0.1047	-0.1677	-21.6	6.9	3.6	-582	-93	2101	
95	147	-0.9804	0.0051	-0.1043	-0.1668	10.7	-16.3	72.3	-496	-119	1612	
96	147	-0.9797	0.0059	-0.1050	-0.1707	-23.6	18.9	25.5	522	45	2365	
97	147	-0.9798	0.0063	-0.1051	-0.1700	6.3	-22.2	53.5	-909	-432	1918	
98	147	-0.9795	0.0066	-0.1055	-0.1716	-6.8	9.8	-8.9	12	-15	2284	
99	147	-0.9803	0.0057	-0.1053	-0.1665	32.6	-28.2	2.4	-1483	-993	1875	
100	147	-0.9800	0.0054	-0.1056	-0.1682	-4.0	14.3	-13.4	134	-297	2126	
101	147	-0.9807	0.0040	-0.1057	-0.1643	34.5	-16.7	48.6	-1118	-909	2044	
102	147	-0.9805	0.0041	-0.1056	-0.1657	-5.3	-1.5	31.0	-125	-125	2010	
103	147	-0.9810	0.0047	-0.1062	-0.1622	-0.5	-20.4	-72.0	-1263	-258	1803	
104	147	-0.9804	0.0044	-0.1060	-0.1656	-12.3	7.9	17.5	366	-726	2101	
105	147	-0.9808	0.0049	-0.1062	-0.1634	7.3	-22.7	-17.1	-1757	-706	1662	
106	147	-0.9805	0.0047	-0.1057	-0.1655	-1.0	-0.9	27.9	-425	-65	1930	
107	147	-0.9807	0.0034	-0.1058	-0.1642	31.2	-25.0	98.0	-1919	-998	1987	
108	147	-0.9801	0.0042	-0.1059	-0.1676	-30.6	7.9	45.0	-126	-190	1914	
109	147	-0.9806	0.0046	-0.1063	-0.1645	18.7	-32.8	-34.6	-1780	73	1699	
110	147	-0.9800	0.0046	-0.1059	-0.1682	-22.7	9.8	27.9	239	-42	2033	
111	147	-0.9805	0.0048	-0.1061	-0.1654	30.1	-28.1	59.2	-2471	-1362	1884	
112	147	-0.9801	0.0043	-0.1063	-0.1673	7.1	3.4	30.7	-439	-248	2101	
113	147	-0.9806	0.0037	-0.1070	-0.1642	46.4	-12.7	0.6	-1859	-704	2050	
114	147	-0.9797	0.0033	-0.1070	-0.1696	-26.5	4.8	65.1	-91	-354	1897	
115	147	-0.9799	0.0043	-0.1071	-0.1679	5.6	-22.1	9.2	-1346	-573	2137	
116	147	-0.9795	0.0041	-0.1067	-0.1706	-2.3	-3.8	50.8	-608	-524	1808	
117	147	-0.9798	0.0046	-0.1071	-0.1687	7.3	-8.9	-90.8	149	1234	2004	
118	147	-0.9791	0.0039	-0.1070	-0.1727	-11.2	8.5	34.8	105	-408	2019	
119	147	-0.9797	0.0037	-0.1071	-0.1693	22.6	-28.8	28.6	-2829	-1639	1972	
120	147	-0.9792	0.0041	-0.1072	-0.1720	-7.5	4.5	31.9	-546	-173	1972	
121	147	-0.9800	0.0040	-0.1074	-0.1671	15.3	-20.9	-127.5	-460	182	2003	
122	147	-0.9794	0.0030	-0.1068	-0.1713	-14.5	9.4	54.3	-67	-450	1793	
123	147	-0.9793	0.0045	-0.1074	-0.1715	-13.7	9.1	-37.3	-218	460	2382	
124	147	-0.9790	0.0045	-0.1071	-0.1734	0.9	7.8	7.4	165	-48	2003	
125	147	-0.9796	0.0043	-0.1074	-0.1700	27.1	-9.4	-110.6	508	1080	2201	
126	147	-0.9785	0.0026	-0.1070	-0.1759	-4.2	19.6	101.8	760	-435	1958	
127	147	-0.9784	0.0045	-0.1080	-0.1762	-10.1	33.0	-129.0	1877	1460	2897	
128	147	-0.9783	0.0033	-0.1069	-0.1774	-27.1	0.9	47.3	598	-298	1583	
129	147	-0.9782	0.0052	-0.1075	-0.1775	-20.9	16.3	-81.8	1017	1145	2426	
130	147	-0.9780	0.0050	-0.1067	-0.1789	-11.7	2.6	37.7	-6	-392	1796	
131	147	-0.9776	0.0058	-0.1070	-0.1809	-18.2	11.2	-4.8	519	484	2205	
132	147	-0.9775	0.0059	-0.1066	-0.1820	-0.1	-6.1	53.1	222	298	1951	
133	147	-0.9782	0.0061	-0.1068	-0.1778	5.3	-23.8	-107.1	-1	783	1929	
134	147	-0.9777	0.0060	-0.1065	-0.1807	-11.4	16.1	-21.2	826	329	2067	
135	147	-0.9777	0.0067	-0.1062	-0.1812	-22.6	-0.7	-23.2	-826	-249	1811	
136	147	-0.9766	0.0087	-0.1065	-0.1867	-8.7	7.9	-62.5	867	827	2200	
137	147	-0.9771	0.0076	-0.1057	-0.1844	17.2	-8.4	83.4	-1353	-771	1910	
138	147	-0.9768	0.0086	-0.1059	-0.1859	-10.2	15.7	-48.1	930	1032	2368	
139	147	-0.9760	0.0089	-0.1054	-0.1902	-19.0	3.7	85.6	-61	-602	1951	
140	147	-0.9752	0.0102	-0.1054	-0.1945	-26.5	13.4	32.6	243	500	2144	
141	147	-0.9757	0.0107	-0.1054	-0.1919	21.4	-8.7	-48.4	-490	713	2025	
142	147	-0.9738	0.0102	-0.1059	-0.2010	-3.4	0.0	-81.4	192	923	1835	
143	147	-0.9728	0.0106	-0.1058	-0.2057	-21.7	12.1	1.6	302	150	2261	
144	147	-0.9718	0.0106	-0.1055	-0.2104	-17.0	16.7	87.9	535	-133	2070	
145	147	-0.9714	0.0121	-0.1057	-0.2120	-31.3	14.0	-6.5	881	867	2369	
146	147	-0.9723	0.0118	-0.1053	-0.2080	39.8	-17.5	-137.8	445	1408	1860	
147	147	-0.9721	0.0107	-0.1052	-0.2092	-11.4	16.8	-8.5	1484	239	2494	
148	147	-0.9715	0.0113	-0.1053	-0.2120	5.1	20.6	-95.1	1595	1482	2500	
149	147	-0.9707	0.0104	-0.1043	-0.2163	-28.9	11.6	100.0	521	-225	1860	
150	147	-0.9702	0.0114	-0.1044	-0.2183	-15.7	14.4	-35.1	1142	667	2594	
151	147	-0.9704	0.0102	-0.1034	-0.2179	9.3	-2.6	143.2	-767	-708	1572	
152	147	-0.9694	0.0110	-0.1044	-0.2217	-18.7	15.0	10.0	693	450	2376	
153	147	-0.9690	0.0110	-0.1041	-0.2239	8.7	1.2	80.3	-850	-492	1784	
154	147	-0.9670	0.0137	-0.1055	-0.2315	-5.9	19.5	-41.7	902	187	2565	
155	147	-0.9669	0.0141	-0.1048	-0.2319	-11.4	1.4	19.8	-163	-412	1840	
156	147	-0.9680	0.0137	-0.1049	-0.2277	24.9	-20.7	-120.9	-1280	-278	2047	
157	147	-0.9673	0.0130	-0.1049	-0.2306	-4.8	4.3	49.2	-51	-661	1836	
158	147	-0.9675	0.0141	-0.1054	-0.2293	2.3	-3.9	-146.8	-91	796	2164	
159	147	-0.9673	0.0138	-0.1043	-0.2307	-24.6	6.1	31.7	493	-681	1962	
160	147	-0.9655	0.0164	-0.1018	-0.2390	-2.3	9.6	-102.7	1052	879	2442	
161	147	-0.9656	0.0157	-0.1011	-0.2388	-20.0	2.9	18.4	377	-536	1899	
162	147	-0.9653	0.0166	-0.1012	-0.2402	-6.7	13.1	-19.0	679	124	2376	
163	147	-0.9653	0.0167	-0.1003	-0.2404	-12.6	-10.1	34.0	-52	-536	1914	
164	147	-0.9651	0.0175	-0.1004	-0.2413	-7.6	10.0	-11.6	248	4	2211	
165	147	-0.9658	0.0170	-0.0999	-0.2384	21.4	-13.0	7.5	-743	-827	1901	
166	147	-0.9647	0.0195	-0.0998	-0.2430	-2.1	3.4	-13.3	10	-459	2166	
167	147	-0.9655	0.0191	-0.0996	-0.2399	13.7	-9.7	-22.6	-399	-531	2003	
168	147	-0.9657	0.0191	-0.0992	-0.2392	-4.0	-2.0	-10.6	-41	-403	2113	
169	147	-0.9661	0.0190	-0.0990	-0.2376	7.7	-8.2	-25.3	-213	-168	2022	
170	147	-0.9663	0.0187	-0.0987	-0.2370	0.5	-4.7	-2.0	-144	-211	2012	
171	147	-0.9663	0.0184	-0.0986	-0.2369	5.5	-4.2	-0.5	-179	-94	2002	
172	147	-0.9646	0.0186	-0.0977	-0.2441	8.1	-2.2	-0.3	-125	-58	2051	
173	147	-0.9646	0.0180	-0.0978	-0.2441	8.5	-0.9	0.0	-141	-42	2027	
174	147	-0.9646	0.0174	-0.0979	-0.2440	8.9	-0.7	0.1	-141	-44	2034	
175	147	-0.9647	0.0168	-0.0980	-0.2440	6.8	0.1	0.4	-159	-76	2025	
176	147	-0.9646	0.0164	-0.0982	-0.2440	7.0	0.8	1.1	-148	-73	2047	
177	147	-0.9646	0.0158	-0.0984	-0.2440	8.8	1.6	0.9	-138	-60	2043	
178	147	-0.9628	0.0149	-0.0983	-0.2513	18.2	2.1	1.8	-132	22	2028	
179	147	-0.9627	0.0132	-0.0991	-0.2513	25.7	3.4	3.1	-166	-34	2028	
180	147	-0.9629	0.0131	-0.0994	-0.2505	-68.4	2.6	-56.5	205	-394	1424	
181	147	-0.9632	0.0148	-0.0993	-0.2492	-19.8	-1.0	-21.1	-30	-400	2091	
182	147	-0.9638	0.0160	-0.0989	-0.2470	-14.1	-2.4	-39.8	-79	-293	2112	
183	147	-0.9644	0.0162	-0.0985	-0.2446	1.9	-2.2	-33.3	-170	-241	2036	
184	147	-0.9633	0.0172	-0.0974	-0.2493	4.3	-2.3	-35.0	-149	-339	2100	
185	147	-0.9640	0.0172	-0.0973	-0.2468	-0.9	0.2	-38.4	-37	-314	1997	
186	147	-0.9648	0.0169	-0.0974	-0.2437	12.2	-0.5	-49.9	-205	-33	2027	
187	147	-0.9657	0.0165	-0.0974	-0.2402	11.0	-0.1	-51.7	-91	-109	1984	
188	147	-0.9666	0.0157	-0.0981	-0.2363	16.1	8.9	-58.7	-49	35	2023	
189	147	-0.9675	0.0150	-0.0993	-0.2321	6.7	16.8	-59.5	16	-17	2073	
190	147	-0.9666	0.0154	-0.0994	-0.2359	7.8	18.8	-38.0	-46	-47	2075	
191	147	-0.9672	0.0153	-0.1002	-0.2329	17.7	8.2	-31.9	-374	191	2024	
192	147	-0.9674	0.0155	-0.1009	-0.2315	-3.3	-6.5	-4.3	-1188	-83	1737	
193	147	-0.9680	0.0156	-0.1016	-0.2286	7.0	26.4	-52.8	2	77	2109	
194	147	-0.9682	0.0159	-0.1019	-0.2279	0.7	-24.6	-18.8	-1603	349	1515	
195	147	-0.9687	0.0154	-0.1030	-0.2251	26.5	22.9	-37.3	-67	103	2125	
196	147	-0.9673	0.0158	-0.1030	-0.2309	2.0	1.2	-15.0	-434	-49	2023	
197	147	-0.9676	0.0167	-0.1027	-0.2302	-0.9	4.6	-21.6	-224	4	1923	
198	147	-0.9677	0.0168	-0.1038	-0.2289	5.8	5.7	-7.0	-467	244	1993	
199	147	-0.9678	0.0174	-0.1032	-0.2289	-5.3	-13.4	-15.6	-282	233	1814	
200	147	-0.9684	0.0161	-0.1037	-0.2263	28.7	7.6	-42.3	-62	142	1965	
201	147	-0.9690	0.0158	-0.1049	-0.2229	2.5	7.6	-35.0	-136	-189	2165	
202	147	-0.9682	0.0175	-0.1039	-0.2270	-13.1	-17.9	6.9	-1205	-60	1653	
203	147	-0.9688	0.0170	-0.1037	-0.2245	33.2	12.0	-48.5	-51	310	2005	
204	147	-0.9697	0.0167	-0.1054	-0.2197	-10.2	18.5	-65.7	-6	-29	2137	
205	147	-0.9705	0.0170	-0.1061	-0.2157	13.9	11.4	-53.5	-3	-316	2062	
206	147	-0.9696	0.0183	-0.1063	-0.2195	-25.8	-18.2	183.4	-2097	-1177	1826	
207	147	-0.9691	0.0207	-0.1040	-0.2225	14.7	-27.2	-43.2	-1265	1135	1547	
208	147	-0.9701	0.0187	-0.1067	-0.2170	32.9	53.6	-85.6	695	599	2446	
209	147	-0.9705	0.0192	-0.1077	-0.2146	3.8	-25.4	-14.0	-1702	434	1458	
210	147	-0.9711	0.0185	-0.1086	-0.2117	15.1	37.8	-29.3	855	-372	2351	
211	147	-0.9697	0.0212	-0.1067	-0.2187	-87.4	-19.7	62.9	110	536	1943	
212	147	-0.9691	0.0219	-0.1058	-0.2214	21.8	-6.3	-32.5	-319	1162	1708	
213	147	-0.9701	0.0186	-0.1088	-0.2162	43.9	43.5	-72.1	586	375	2453	
214	147	-0.9706	0.0186	-0.1090	-0.2138	10.3	-14.3	-24.0	-589	-352	1826	
215	147	-0.9714	0.0162	-0.1104	-0.2094	36.4	37.7	-52.6	872	-410	2515	
216	147	-0.9714	0.0170	-0.1102	-0.2095	-30.4	-13.4	-14.3	-293	-165	1739	
217	147	-0.9714	0.0170	-0.1108	-0.2094	12.9	8.8	52.5	-38	-1189	2131	
218	147	-0.9721	0.0168	-0.1114	-0.2056	29.3	26.5	-34.6	-480	15	1931	
219	147	-0.9726	0.0157	-0.1130	-0.2027	7.9	35.3	-12.3	447	-900	2598	
220	147	-0.9722	0.0155	-0.1120	-0.2051	5.7	-30.9	-23.2	-650	1468	1722	
221	147	-0.9728	0.0142	-0.1137	-0.2014	22.9	38.0	-51.0	673	272	2299	
222	147	-0.9715	0.0157	-0.1142	-0.2072	-70.0	-53.9	167.6	-1047	-637	1531	
223	147	-0.9708	0.0181	-0.1117	-0.2113	11.6	-7.7	-43.7	-616	779	1643	
224	147	-0.9713	0.0150	-0.1157	-0.2073	-21.4	111.7	10.3	2722	-542	3562	
225	147	-0.9699	0.0182	-0.1135	-0.2146	-58.4	-26.0	-18.5	-658	650	1736	
226	147	-0.9696	0.0133	-0.1160	-0.2150	95.6	26.0	-65.2	779	374	2360	
227	147	-0.9684	0.0143	-0.1166	-0.2201	-65.4	-39.2	133.2	-1231	443	1681	
228	147	-0.9685	0.0150	-0.1151	-0.2202	74.2	-6.5	-48.9	-472	479	1729	
229	147	-0.9696	0.0121	-0.1182	-0.2139	-15.9	85.8	-40.1	2783	-990	3676	
230	147	-0.9684	0.0155	-0.1165	-0.2197	-40.1	-20.7	38.6	-628	-229	1787	
231	147	-0.9694	0.0113	-0.1178	-0.2149	118.5	32.5	-62.9	423	798	2243	
232	147	-0.9687	0.0130	-0.1183	-0.2178	-61.6	-23.1	122.1	-751	-206	1907	
233	147	-0.9687	0.0145	-0.1169	-0.2183	46.9	-4.5	-57.1	-716	623	1705	
234	147	-0.9696	0.0131	-0.1195	-0.2131	-27.3	75.3	21.4	1744	-545	3224	
235	147	-0.9683	0.0162	-0.1172	-0.2201	-49.0	-21.4	45.9	-503	-315	1777	
236	147	-0.9689	0.0131	-0.1179	-0.2172	85.5	24.6	-65.9	712	339	2344	
237	147	-0.9688	0.0134	-0.1189	-0.2168	-43.6	-15.7	63.5	-860	-643	1958	
238	147	-0.9700	0.0138	-0.1186	-0.2118	66.3	-2.7	-58.4	34	306	1922	
239	147	-0.9708	0.0111	-0.1205	-0.2070	2.5	41.2	-50.9	1006	138	2739	
240	147	-0.9708	0.0124	-0.1208	-0.2069	-20.0	-9.3	3.1	-512	-494	1895	
241	147	-0.9714	0.0121	-0.1213	-0.2037	10.8	42.3	-1.9	834	-332	2558	
242	147	-0.9712	0.0135	-0.1208	-0.2051	-18.7	-19.4	29.3	-1074	322	1702	
243	147	-0.9720	0.0120	-0.1203	-0.2016	52.0	12.6	-55.3	215	66	2290	
244	147	-0.9719	0.0120	-0.1223	-0.2007	-32.9	7.7	54.6	-768	-658	1921	
245	147	-0.9721	0.0127	-0.1205	-0.2009	19.8	-16.0	-38.4	-436	-97	1872	
246	147	-0.9722	0.0121	-0.1221	-0.1995	-22.7	25.2	53.7	-221	-1032	2228	
247	147	-0.9724	0.0131	-0.1203	-0.1992	13.5	-23.7	-47.3	-936	24	1529	
248	147	-0.9732	0.0116	-0.1213	-0.1947	29.5	14.6	-47.0	49	281	2212	
249	147	-0.9727	0.0140	-0.1204	-0.1981	-34.6	-24.3	24.9	-439	68	1829	
250	147	-0.9729	0.0129	-0.1202	-0.1971	45.1	6.3	-36.4	-11	-94	2126	
251	147	-0.9733	0.0129	-0.1205	-0.1947	-18.2	-1.6	-42.2	-86	164	2036	
252	147	-0.9741	0.0122	-0.1202	-0.1912	24.6	0.4	-44.4	-13	-212	2077	
253	147	-0.9740	0.0136	-0.1203	-0.1914	-62.3	12.6	23.6	246	-516	2284	
254	147	-0.9738	0.0145	-0.1189	-0.1934	0.7	-11.4	-32.3	-356	394	1862	
255	147	-0.9745	0.0140	-0.1196	-0.1893	17.6	21.8	-33.7	421	129	2306	
0	147	-0.9743	0.0149	-0.1194	-0.1904	-4.5	-11.7	-6.8	-645	417	1759	
1	147	-0.9749	0.0137	-0.1195	-0.1874	25.6	8.7	-40.6	170	71	2221	
2	147	-0.9745	0.0147	-0.1194	-0.1892	-29.8	-6.5	22.9	-132	173	2031	
3	147	-0.9749	0.0144	-0.1187	-0.1875	16.9	-2.4	-49.2	30	177	1969	
4	147	-0.9750	0.0145	-0.1199	-0.1862	-18.8	-8.7	30.7	-807	-454	1841	
5	147	-0.9753	0.0157	-0.1185	-0.1853	2.9	-13.6	-41.4	-667	91	1820	
6	147	-0.9753	0.0157	-0.1199	-0.1845	-22.7	35.0	17.6	509	-623	2596	
7	147	-0.9750	0.0166	-0.1193	-0.1866	-13.5	-14.3	7.8	-464	79	1820	
8	147	-0.9754	0.0152	-0.1191	-0.1849	22.8	8.7	-25.0	148	396	2140	
9	147	-0.9751	0.0166	-0.1194	-0.1862	-30.3	-1.1	21.8	-270	-208	1955	
10	147	-0.9752	0.0165	-0.1188	-0.1857	17.5	0.7	-21.6	-39	201	2035	
11	147	-0.9753	0.0171	-0.1195	-0.1848	-18.9	3.8	8.1	-337	-213	1954	
12	147	-0.9758	0.0173	-0.1188	-0.1824	16.7	-8.3	-16.4	-337	150	1975	
13	147	-0.9760	0.0169	-0.1194	-0.1813	-12.1	14.9	2.6	-54	-242	2136	
14	147	-0.9759	0.0176	-0.1190	-0.1820	-12.1	-10.1	-0.3	-289	-80	1913	
15	147	-0.9761	0.0170	-0.1191	-0.1810	1.6	13.9	-16.9	50	162	2192	
16	147	-0.9760	0.0183	-0.1193	-0.1812	-21.2	-3.1	7.2	-305	-153	1900	
17	147	-0.9761	0.0186	-0.1190	-0.1807	7.3	3.3	-9.8	-85	-18	2088	
18	147	-0.9763	0.0197	-0.1183	-0.1802	-23.6	1.5	19.6	-248	-284	1999	
19	147	-0.9763	0.0195	-0.1179	-0.1803	12.3	-2.9	-9.7	-137	113	2121	
20	147	-0.9763	0.0188	-0.1183	-0.1798	3.2	4.6	-3.1	-167	53	2038	
21	147	-0.9763	0.0185	-0.1181	-0.1800	5.0	-6.3	-1.3	-189	-114	2043	
22	147	-0.9764	0.0182	-0.1181	-0.1797	-1.8	4.7	-4.8	-95	-6	2074	
23	147	-0.9763	0.0191	-0.1180	-0.1803	-12.0	-1.2	4.3	-209	-41	1970	
24	147	-0.9766	0.0196	-0.1172	-0.1792	-1.8	3.1	-10.2	-81	54	2060	
25	147	-0.9765	0.0199	-0.1173	-0.1795	-7.6	0.3	-1.5	-155	145	2007	
26	147	-0.9766	0.0195	-0.1172	-0.1792	3.5	-0.1	-6.1	-82	47	2086	
27	147	-0.9766	0.0195	-0.1173	-0.1792	-1.0	0.0	1.3	-181	-89	2013	
28	147	-0.9766	0.0196	-0.1171	-0.1791	-4.6	-0.1	-7.6	-93	-105	2051	
29	147	-0.9767	0.0198	-0.1171	-0.1789	-4.8	0.7	-2.8	-150	-17	2043	
30	147	-0.9770	0.0194	-0.1165	-0.1774	9.3	1.2	-6.4	-166	174	2048	
31	147	-0.9771	0.0190	-0.1168	-0.1769	5.0	2.3	-4.7	-173	91	2026	
32	147	-0.9771	0.0188	-0.1169	-0.1766	1.4	1.0	-4.5	-160	-20	2045	
33	147	-0.9771	0.0187	-0.1171	-0.1764	2.6	2.8	-1.2	-180	49	2020	
34	147	-0.9771	0.0186	-0.1173	-0.1763	2.1	2.3	0.0	-170	114	2005	
35	147	-0.9771	0.0187	-0.1175	-0.1764	-2.8	3.2	0.8	-177	26	2020	
36	147	-0.9771	0.0189	-0.1169	-0.1764	-5.7	2.8	0.2	-170	-6	2017	
37	147	-0.9771	0.0194	-0.1171	-0.1765	-7.6	4.2	0.1	-169	-12	2035	
38	147	-0.9770	0.0201	-0.1173	-0.1766	-7.2	4.9	0.7	-164	-36	2027	
39	147	-0.9770	0.0206	-0.1176	-0.1767	-5.6	5.9	0.7	-167	-49	2037	
40	147	-0.9769	0.0209	-0.1181	-0.1767	-2.4	7.1	0.7	-171	-44	2033	
41	147	-0.9768	0.0210	-0.1187	-0.1768	0.5	8.3	1.3	-168	-39	2053	
42	147	-0.9767	0.0210	-0.1185	-0.1774	2.3	8.5	1.0	-174	-42	2023	
43	147	-0.9767	0.0209	-0.1191	-0.1775	2.3	7.5	1.2	-190	-41	2022	
44	147	-0.9766	0.0209	-0.1197	-0.1775	1.1	6.7	0.7	-196	-37	2027	
45	147	-0.9765	0.0209	-0.1201	-0.1776	0.3	5.8	0.4	-192	-18	2038	
46	147	-0.9764	0.0210	-0.1205	-0.1776	0.3	5.8	0.8	-206	-6	2035	
47	147	-0.9764	0.0211	-0.1209	-0.1776	-1.4	4.6	0.3	-183	-23	2007	
48	147	-0.9763	0.0214	-0.1204	-0.1785	-2.5	4.8	0.4	-194	-48	2017	
49	147	-0.9762	0.0216	-0.1208	-0.1786	-3.3	4.8	0.8	-200	-44	2044	
50	147	-0.9762	0.0219	-0.1211	-0.1787	-2.4	6.0	1.4	-188	-41	2039	
51	147	-0.9761	0.0221	-0.1216	-0.1788	-1.7	7.5	1.6	-189	-34	2042	
52	147	-0.9761	0.0222	-0.1216	-0.1789	-3.9	-7.1	0.3	17	133	2154	
53	147	-0.9760	0.0223	-0.1215	-0.1789	-0.8	-1.0	0.3	-202	-59	2026	
54	147	-0.9763	0.0223	-0.1209	-0.1783	-1.2	1.0	0.7	-172	-19	2024	
55	147	-0.9762	0.0224	-0.1210	-0.1783	-1.7	2.3	0.4	-171	-34	2036	
56	147	-0.9762	0.0225	-0.1212	-0.1784	-1.0	3.1	0.7	-181	-31	2024	
57	147	-0.9762	0.0226	-0.1213	-0.1784	-0.6	2.6	0.7	-192	-40	2022	
58	147	-0.9761	0.0226	-0.1215	-0.1785	0.4	2.3	0.7	-191	-41	2025	
59	147	-0.9761	0.0227	-0.1217	-0.1785	-0.5	2.9	0.4	-187	-76	2034	
60	147	-0.9762	0.0226	-0.1210	-0.1785	1.7	0.4	0.7	-192	-50	2028	
61	147	-0.9762	0.0225	-0.1211	-0.1785	2.0	-0.1	0.5	-202	-35	2021	
62	147	-0.9762	0.0225	-0.1210	-0.1785	-3.8	-1.9	0.0	-222	111	1959	
63	147	-0.9762	0.0227	-0.1209	-0.1786	-1.7	-2.4	0.2	-193	-68	2034	
64	147	-0.9762	0.0229	-0.1207	-0.1786	-3.1	-1.8	0.4	-197	-56	2034	
65	147	-0.9762	0.0231	-0.1205	-0.1787	-5.0	-3.0	0.3	-183	-19	2018	
66	147	-0.9762	0.0234	-0.1195	-0.1794	-4.6	-2.9	0.4	-183	-55	2029	
67	147	-0.9762	0.0237	-0.1193	-0.1795	-5.7	-1.5	0.0	-179	-45	2022	
68	147	-0.9762	0.0243	-0.1192	-0.1795	-7.9	0.9	0.0	-199	-37	2028	
69	147	-0.9762	0.0248	-0.1191	-0.1796	-7.8	-1.2	-0.1	-207	-5	2010	
70	147	-0.9762	0.0255	-0.1190	-0.1797	-7.5	-0.2	-0.2	-192	-31	2034	
71	147	-0.9762	0.0258	-0.1188	-0.1797	-2.5	-1.5	0.0	-219	-79	2021	
72	147	-0.9763	0.0259	-0.1181	-0.1791	-1.9	-0.9	0.2	-190	-62	2022	
73	147	-0.9763	0.0258	-0.1181	-0.1791	2.6	0.1	0.1	-198	-71	2024	
74	147	-0.9764	0.0256	-0.1182	-0.1790	4.9	-0.6	0.0	-204	-63	2027	
75	147	-0.9764	0.0252	-0.1183	-0.1790	6.0	1.2	0.3	-190	-59	2021	
76	147	-0.9764	0.0248	-0.1183	-0.1790	6.0	0.0	0.6	-173	-56	2047	
77	147	-0.9764	0.0244	-0.1183	-0.1790	5.1	-1.1	0.2	-202	-39	2020	
78	147	-0.9764	0.0241	-0.1176	-0.1796	2.4	-1.0	0.0	-187	-36	2024	
79	147	-0.9764	0.0240	-0.1176	-0.1796	1.4	-0.3	0.2	-184	-54	2028	
80	147	-0.9764	0.0239	-0.1176	-0.1796	0.7	-1.2	0.1	-193	-50	2022	
81	147	-0.9764	0.0239	-0.1175	-0.1796	0.6	-1.0	0.1	-172	-44	2023	
82	147	-0.9764	0.0238	-0.1174	-0.1796	0.6	-0.4	0.3	-177	-51	2022	
83	147	-0.9764	0.0237	-0.1174	-0.1796	1.0	0.1	0.4	-175	-60	2030	
84	147	-0.9764	0.0236	-0.1167	-0.1800	2.6	-0.7	0.4	-176	-49	2036	
85	147	-0.9764	0.0234	-0.1167	-0.1800	3.3	-1.2	0.3	-179	-37	2027	
86	147	-0.9764	0.0230	-0.1167	-0.1800	5.6	-1.2	0.5	-181	-48	2044	
87	147	-0.9765	0.0225	-0.1166	-0.1800	7.8	-3.7	0.2	-187	-37	2035	
88	147	-0.9765	0.0217	-0.1164	-0.1799	10.6	-5.7	0.6	-184	-44	2039	
89	147	-0.9766	0.0208	-0.1159	-0.1799	11.9	-8.7	0.7	-190	-43	2041	
90	147	-0.9767	0.0198	-0.1147	-0.1805	11.4	-10.7	0.7	-170	-19	2024	
91	147	-0.9767	0.0191	-0.1141	-0.1805	6.8	-8.1	0.6	-163	-2	2018	
92	147	-0.9768	0.0186	-0.1137	-0.1805	3.7	-7.0	0.4	-164	-5	2014	
93	147	-0.9768	0.0184	-0.1133	-0.1805	0.5	-4.4	0.3	-151	-15	2016	
94	147	-0.9768	0.0185	-0.1131	-0.1805	-1.6	-1.6	0.2	-154	-28	2014	
95	147	-0.9768	0.0186	-0.1130	-0.1806	-1.0	0.7	0.4	-165	-23	2019	
96	147	-0.9769	0.0186	-0.1125	-0.1806	0.3	1.9	0.0	-143	-33	2040	
97	147	-0.9769	0.0185	-0.1125	-0.1806	1.8	-0.6	0.3	-161	-45	2049	
98	147	-0.9769	0.0183	-0.1124	-0.1806	3.2	-0.9	0.5	-157	-47	2044	
99	147	-0.9769	0.0180	-0.1123	-0.1806	4.9	-3.0	0.4	-175	-55	2042	
100	147	-0.9770	0.0174	-0.1120	-0.1806	8.1	-6.6	0.4	-178	-45	2045	
101	147	-0.9770	0.0168	-0.1114	-0.1806	2.9	-13.9	0.9	-213	58	1944	
102	147	-0.9772	0.0171	-0.1092	-0.1813	-0.3	-22.0	0.6	-95	-204	2256	
103	147	-0.9774	0.0163	-0.1076	-0.1813	6.5	-22.2	0.2	-172	23	1989	
104	147	-0.9776	0.0160	-0.1058	-0.1814	-2.9	-26.2	0.0	-138	14	1996	
105	147	-0.9777	0.0159	-0.1041	-0.1814	-2.9	-22.0	0.1	-139	-15	1997	
106	147	-0.9779	0.0161	-0.1026	-0.1815	-7.8	-15.7	0.3	-38	27	2031	
107	147	-0.9780	0.0163	-0.1017	-0.1816	-4.3	-11.1	0.0	-82	-91	2074	
108	147	-0.9784	0.0165	-0.1003	-0.1799	-5.3	-6.2	0.4	-94	39	2004	
109	147	-0.9784	0.0164	-0.1000	-0.1799	1.4	-3.2	0.1	-112	-6	2047	
110	147	-0.9785	0.0162	-0.0997	-0.1799	3.2	-4.5	0.1	-115	-13	2030	
111	147	-0.9785	0.0157	-0.0994	-0.1799	8.2	-5.8	0.7	-79	-54	2064	
112	147	-0.9786	0.0148	-0.0990	-0.1798	12.4	-10.3	0.3	-119	-16	2057	
113	147	-0.9787	0.0135	-0.0984	-0.1798	17.1	-12.6	0.5	-88	-25	2057	
114	147	-0.9786	0.0121	-0.0968	-0.1808	16.8	-16.8	0.7	-141	-10	2029	
115	147	-0.9788	0.0108	-0.0958	-0.1807	14.8	-17.2	0.7	-91	-2	2014	
116	147	-0.9789	0.0095	-0.0948	-0.1807	14.2	-16.1	0.9	-69	10	2020	
117	147	-0.9790	0.0084	-0.0941	-0.1807	15.3	-10.1	1.2	-73	-75	2024	
118	147	-0.9790	0.0072	-0.0940	-0.1806	17.9	-3.2	0.6	-75	10	2046	
119	147	-0.9790	0.0061	-0.0941	-0.1806	15.2	1.6	0.5	-57	37	2016	
120	147	-0.9790	0.0050	-0.0939	-0.1806	13.6	6.1	0.9	-69	37	2027	
121	147	-0.9790	0.0047	-0.0945	-0.1806	-1.0	8.8	1.0	-35	182	1912	
122	147	-0.9789	0.0042	-0.0949	-0.1806	9.3	3.1	0.9	-68	53	2007	
123	147	-0.9789	0.0039	-0.0951	-0.1806	5.5	-1.3	0.9	-137	-93	2121	
124	147	-0.9789	0.0034	-0.0949	-0.1807	5.7	-5.4	0.8	-112	5	2023	
125	147	-0.9789	0.0025	-0.0949	-0.1806	11.8	1.0	0.9	-130	-34	2027	
126	147	-0.9791	0.0034	-0.0946	-0.1798	-32.8	14.1	0.0	60	389	1715	
127	147	-0.9789	0.0075	-0.0958	-0.1801	-53.6	28.2	0.0	-41	-24	2074	
128	147	-0.9787	0.0126	-0.0969	-0.1804	-60.5	25.4	-0.7	-145	-76	2009	
129	147	-0.9785	0.0172	-0.0983	-0.1807	-58.2	36.5	-1.2	-65	-50	2089	
130	147	-0.9782	0.0208	-0.0995	-0.1809	-41.2	21.1	-1.4	-141	1	2085	
131	147	-0.9781	0.0237	-0.1004	-0.1809	-26.3	14.4	-9.5	-39	58	2212	
132	147	-0.9780	0.0259	-0.1002	-0.1812	-29.1	14.5	-1.4	-160	-131	2066	
133	147	-0.9779	0.0276	-0.1003	-0.1812	-19.1	3.1	-0.3	-168	-163	2061	
134	147	-0.9779	0.0284	-0.0999	-0.1813	-8.5	-3.9	-0.1	-111	-165	2067	
135	147	-0.9779	0.0288	-0.0996	-0.1813	-4.5	-4.8	-0.4	-98	-73	2016	
136	147	-0.9779	0.0288	-0.0994	-0.1814	2.0	-0.9	0.0	-78	-150	2047	
137	147	-0.9779	0.0284	-0.0996	-0.1813	9.5	2.6	0.6	-122	-157	2049	
138	147	-0.9782	0.0276	-0.0992	-0.1801	12.6	0.3	0.4	-145	-112	2007	
139	147	-0.9782	0.0267	-0.0995	-0.1801	13.2	4.2	0.7	-102	-99	2045	
140	147	-0.9782	0.0259	-0.0999	-0.1800	12.0	3.2	0.4	-118	-84	2044	
141	147	-0.9782	0.0251	-0.1003	-0.1800	10.9	2.1	0.6	-140	-71	2022	
142	147	-0.9782	0.0244	-0.1006	-0.1800	8.0	2.0	1.0	-107	-27	2022	
143	147	-0.9782	0.0240	-0.1009	-0.1800	6.2	2.3	1.2	-122	-76	2049	
144	147	-0.9782	0.0237	-0.1003	-0.1800	3.3	1.8	1.2	-106	-16	2037	
145	147	-0.9782	0.0234	-0.1006	-0.1800	4.1	3.9	1.4	-91	-46	2055	
146	147	-0.9782	0.0232	-0.1007	-0.1801	2.6	0.6	1.4	-127	-6	2021	
147	147	-0.9782	0.0229	-0.1007	-0.1802	3.2	-1.7	1.4	-111	-36	2053	
148	147	-0.9782	0.0226	-0.1006	-0.1803	3.7	-3.7	1.7	-101	-15	2030	
149	147	-0.9782	0.0223	-0.1003	-0.1804	2.5	-5.6	1.5	-124	-37	2024	
150	147	-0.9782	0.0220	-0.0992	-0.1812	2.5	-7.3	1.5	-119	-35	2047	
151	147	-0.9782	0.0217	-0.0985	-0.1813	2.2	-11.2	1.1	-141	-25	2047	
152	147	-0.9783	0.0213	-0.0978	-0.1814	3.0	-12.2	1.1	-150	-78	2063	
153	147	-0.9784	0.0209	-0.0968	-0.1814	4.6	-14.8	0.3	-110	-79	2070	
154	147	-0.9785	0.0204	-0.0957	-0.1814	5.1	-18.0	-0.1	-156	-69	2026	
155	147	-0.9786	0.0200	-0.0945	-0.1814	2.6	-15.4	0.0	-16	-118	1961	
156	147	-0.9787	0.0198	-0.0935	-0.1815	4.2	3.1	1.2	-20	-63	1987	
157	147	-0.9786	0.0199	-0.0940	-0.1816	-7.1	6.8	1.7	-61	125	1901	
158	147	-0.9786	0.0204	-0.0945	-0.1818	0.0	12.0	1.8	-51	-83	2081	
159	147	-0.9785	0.0205	-0.0953	-0.1819	1.0	13.1	1.7	-99	-107	2038	
160	147	-0.9784	0.0205	-0.0958	-0.1820	1.2	2.9	1.1	-120	-83	2051	
161	147	-0.9784	0.0202	-0.0960	-0.1820	6.5	0.6	1.4	-92	-98	2049	
162	147	-0.9782	0.0197	-0.0952	-0.1831	11.2	-2.5	1.4	-110	-74	2043	
163	147	-0.9783	0.0186	-0.0952	-0.1831	15.3	-4.6	1.5	-102	-55	2045	
164	147	-0.9783	0.0173	-0.0950	-0.1831	17.5	-6.3	1.6	-97	-38	2059	
165	147	-0.9784	0.0160	-0.0947	-0.1831	17.1	-5.9	1.4	-83	-7	2034	
166	147	-0.9784	0.0148	-0.0945	-0.1831	14.2	-5.0	1.4	-78	-2	2017	
167	147	-0.9784	0.0139	-0.0945	-0.1832	10.9	-2.8	1.6	-75	-7	2026	
168	147	-0.9787	0.0130	-0.0938	-0.1818	8.5	-1.2	1.5	-69	-7	2036	
169	147	-0.9787	0.0124	-0.0938	-0.1819	6.9	-0.9	1.2	-85	-17	2046	
170	147	-0.9787	0.0119	-0.0938	-0.1819	6.8	-1.3	1.4	-75	-20	2033	
171	147	-0.9787	0.0114	-0.0938	-0.1820	7.6	-2.5	1.2	-83	-33	2042	
172	147	-0.9788	0.0107	-0.0937	-0.1820	9.2	-4.2	1.0	-79	-34	2054	
173	147	-0.9788	0.0098	-0.0934	-0.1820	11.6	-5.9	1.2	-77	-28	2064	
174	147	-0.9789	0.0089	-0.0924	-0.1820	13.2	-6.8	0.9	-90	-25	2041	
175	147	-0.9789	0.0078	-0.0921	-0.1820	13.3	-7.6	1.1	-76	-13	2038	
176	147	-0.9790	0.0068	-0.0917	-0.1820	11.7	-7.6	1.0	-66	3	2035	
177	147	-0.9790	0.0060	-0.0913	-0.1820	9.1	-6.2	1.1	-59	5	2020	
178	147	-0.9790	0.0054	-0.0910	-0.1821	5.9	-5.0	0.8	-62	19	2019	
179	147	-0.9790	0.0050	-0.0908	-0.1821	3.5	-3.9	0.9	-61	17	2014	
180	147	-0.9792	0.0047	-0.0899	-0.1818	1.8	-2.8	0.5	-56	12	2030	
181	147	-0.9792	0.0046	-0.0898	-0.1818	0.7	-1.8	0.7	-52	8	2029	
182	147	-0.9792	0.0045	-0.0897	-0.1819	0.4	-1.7	0.6	-58	5	2050	
183	147	-0.9792	0.0044	-0.0896	-0.1819	0.6	-1.5	0.4	-56	1	2040	
184	147	-0.9792	0.0043	-0.0895	-0.1820	1.5	-1.3	0.5	-52	9	2038	
185	147	-0.9792	0.0042	-0.0894	-0.1820	1.7	-1.4	0.6	-55	5	2041	
186	147	-0.9791	0.0041	-0.0887	-0.1832	0.8	-0.6	0.5	-46	13	2029	
187	147	-0.9790	0.0042	-0.0887	-0.1832	-2.1	1.3	0.2	-31	25	2011	
188	147	-0.9790	0.0045	-0.0888	-0.1832	-6.4	4.1	0.5	-42	31	2014	
189	147	-0.9790	0.0052	-0.0891	-0.1833	-10.2	6.5	0.2	-49	25	2027	
190	147	-0.9789	0.0062	-0.0894	-0.1834	-13.2	6.8	-0.1	-55	4	2035	
191	147	-0.9789	0.0073	-0.0897	-0.1835	-14.2	6.7	-0.1	-66	-8	2039	
192	147	-0.9793	0.0081	-0.0893	-0.1811	-12.7	5.8	0.1	-65	-25	2044	
193	147	-0.9793	0.0090	-0.0895	-0.1812	-9.6	4.1	0.3	-73	-39	2067	
194	147	-0.9793	0.0095	-0.0896	-0.1813	-5.4	1.4	0.3	-81	-48	2045	
195	147	-0.9793	0.0097	-0.0896	-0.1813	-1.4	-0.9	0.6	-72	-46	2055	
196	147	-0.9793	0.0096	-0.0894	-0.1814	1.6	-2.6	0.7	-74	-40	2047	
197	147	-0.9793	0.0093	-0.0892	-0.1814	3.4	-3.4	0.8	-61	-40	2034	
198	147	-0.9792	0.0091	-0.0884	-0.1824	3.4	-2.8	0.7	-59	-28	2039	
199	147	-0.9792	0.0089	-0.0883	-0.1824	2.6	-1.5	0.3	-47	-19	2042	
200	147	-0.9792	0.0088	-0.0883	-0.1824	0.9	0.4	0.4	-57	-12	2016	
201	147	-0.9792	0.0088	-0.0884	-0.1824	-1.2	2.1	0.3	-58	0	2029	
202	147	-0.9792	0.0090	-0.0886	-0.1825	-3.1	3.0	0.3	-53	-7	2022	
203	147	-0.9791	0.0093	-0.0887	-0.1825	-4.4	3.1	0.5	-56	-12	2041	
204	147	-0.9792	0.0097	-0.0882	-0.1825	-5.0	2.7	0.3	-67	-9	2042	
205	147	-0.9792	0.0101	-0.0883	-0.1825	-5.0	1.9	0.4	-66	-15	2037	
206	147	-0.9791	0.0104	-0.0884	-0.1826	-4.3	0.7	0.2	-56	-17	2033	
207	147	-0.9791	0.0107	-0.0883	-0.1826	-4.1	0.0	0.1	-54	-20	2057	
208	147	-0.9791	0.0110	-0.0883	-0.1827	-3.8	0.0	0.2	-54	-18	2030	
209	147	-0.9791	0.0113	-0.0882	-0.1827	-3.5	0.2	0.3	-52	-22	2046	
210	147	-0.9793	0.0115	-0.0875	-0.1822	-3.7	1.0	0.4	-54	-20	2033	
211	147	-0.9792	0.0118	-0.0876	-0.1823	-4.3	1.4	0.3	-54	-23	2036	
212	147	-0.9792	0.0121	-0.0876	-0.1823	-4.6	1.6	0.3	-68	-33	2032	
213	147	-0.9792	0.0125	-0.0877	-0.1824	-4.6	1.8	0.4	-62	-37	2030	
214	147	-0.9792	0.0128	-0.0878	-0.1824	-4.3	1.5	0.4	-64	-50	2041	
215	147	-0.9792	0.0131	-0.0878	-0.1825	-3.4	1.2	0.5	-66	-50	2037	
216	147	-0.9791	0.0134	-0.0872	-0.1830	-2.0	0.6	0.7	-67	-51	2036	
217	147	-0.9791	0.0134	-0.0872	-0.1831	0.0	-0.4	0.6	-69	-60	2031	
218	147	-0.9791	0.0133	-0.0872	-0.1831	2.2	-1.5	0.7	-67	-63	2035	
219	147	-0.9791	0.0130	-0.0870	-0.1831	4.4	-2.8	0.9	-63	-53	2035	
220	147	-0.9791	0.0126	-0.0869	-0.1832	6.3	-3.5	0.8	-54	-51	2034	
221	147	-0.9792	0.0120	-0.0867	-0.1832	7.7	-3.9	0.6	-53	-38	2037	
222	147	-0.9791	0.0114	-0.0859	-0.1841	8.8	-3.9	0.6	-47	-31	2037	
223	147	-0.9791	0.0107	-0.0858	-0.1841	8.6	-3.2	0.5	-54	-26	2024	
224	147	-0.9791	0.0101	-0.0857	-0.1841	8.1	-2.5	0.6	-49	-13	2020	
225	147	-0.9791	0.0095	-0.0857	-0.1841	7.2	-1.2	0.4	-50	-2	2053	
226	147	-0.9791	0.0090	-0.0857	-0.1841	6.4	-1.2	0.4	-55	3	2029	
227	147	-0.9791	0.0086	-0.0857	-0.1841	5.2	-0.6	0.4	-50	-17	2043	
228	147	-0.9791	0.0083	-0.0851	-0.1842	3.8	-0.5	0.6	-44	-26	2042	
229	147	-0.9791	0.0080	-0.0851	-0.1843	3.9	-1.0	0.4	-45	-22	2044	
230	147	-0.9792	0.0076	-0.0850	-0.1843	5.4	-2.2	0.4	-57	-13	2035	
231	147	-0.9792	0.0072	-0.0849	-0.1843	3.9	-2.0	0.4	-43	-17	2033	
232	147	-0.9792	0.0070	-0.0848	-0.1843	2.5	-1.4	0.4	-27	-9	2028	
233	147	-0.9792	0.0069	-0.0848	-0.1843	0.4	-0.3	0.4	-36	-23	2006	
234	147	-0.9791	0.0070	-0.0841	-0.1851	-0.7	1.1	0.4	-45	-3	2029	
235	147	-0.9791	0.0070	-0.0843	-0.1851	-0.5	2.0	0.3	-44	-4	2043	
236	147	-0.9790	0.0071	-0.0844	-0.1852	-2.0	2.7	0.3	-48	-12	2037	
237	147	-0.9790	0.0074	-0.0846	-0.1852	-2.9	3.4	0.1	-48	-21	2023	
238	147	-0.9790	0.0076	-0.0848	-0.1852	-2.9	3.2	0.4	-46	-20	2036	
239	147	-0.9789	0.0078	-0.0850	-0.1853	-2.1	2.5	0.6	-54	-15	2040	
240	147	-0.9793	0.0078	-0.0845	-0.1835	-0.6	1.6	0.1	-52	-17	2037	
241	147	-0.9793	0.0078	-0.0846	-0.1835	1.5	0.0	0.3	-46	-26	2042	
242	147	-0.9793	0.0077	-0.0846	-0.1835	2.0	-0.6	0.3	-49	-23	2038	
243	147	-0.9793	0.0075	-0.0845	-0.1836	2.5	-1.7	0.5	-44	-24	2035	
244	147	-0.9793	0.0072	-0.0844	-0.1836	3.4	-1.8	0.4	-44	-13	2049	
245	147	-0.9793	0.0070	-0.0844	-0.1836	3.9	-1.8	0.2	-50	-10	2018	
246	147	-0.9794	0.0067	-0.0837	-0.1837	3.4	-1.2	0.7	-39	-10	2022	
247	147	-0.9794	0.0064	-0.0837	-0.1837	2.3	-0.4	0.4	-44	-8	2040	
248	147	-0.9794	0.0064	-0.0837	-0.1838	0.6	0.3	0.6	-46	-7	2015	
249	147	-0.9794	0.0063	-0.0837	-0.1838	0.7	0.3	0.4	-47	-2	2048	
250	147	-0.9793	0.0062	-0.0838	-0.1838	1.3	0.0	0.5	-55	-14	2044	
251	147	-0.9793	0.0061	-0.0838	-0.1838	1.0	-0.3	0.4	-50	-13	2034	
252	147	-0.9792	0.0061	-0.0831	-0.1846	0.8	-0.8	0.5	-38	-16	2035	
253	147	-0.9792	0.0060	-0.0830	-0.1846	0.6	-1.5	0.5	-43	-15	2044	
254	147	-0.9792	0.0059	-0.0829	-0.1847	1.3	-2.1	0.4	-43	-21	2052	
255	147	-0.9793	0.0057	-0.0827	-0.1847	2.5	-3.5	0.4	-37	-11	2034	
0	147	-0.9793	0.0055	-0.0826	-0.1847	2.5	-3.4	0.3	-34	-14	2037	
